kolorowanka,Example,Stimuli,proby.thisRepN,proby.thisTrialN,proby.thisN,proby.thisIndex,zapoznanie.thisRepN,zapoznanie.thisTrialN,zapoznanie.thisN,zapoznanie.thisIndex,Warunki.thisRepN,Warunki.thisTrialN,Warunki.thisN,Warunki.thisIndex,Intro.started,Intro_resp.started,Intro_resp.keys,Intro_resp.rt,Kolorowanie1.started,starttt.started,starttt.keys,starttt.rt,koloruj.started,Instruction.started,key_resp.started,key_resp.keys,key_resp.rt,Wyjasnienie.started,text.started,odp_przyk.started,odp_przyk.keys,odp_przyk.corr,odp_przyk.rt,zapo.started,Zadanie.started,Odp.started,Odp.keys,Odp.corr,Odp.rt,zapo.stopped,thanks.started,KONIEC.started,KONIEC.keys,KONIEC.rt,participant,Wiek (w latach),Płeć (K/M),Entropia,date,expName,psychopyVersion,frameRate,
,,,,,,,,,,,,,,,155.33813506295000,157.3170894559010,space,10.675939449924000,,,,,,,,,,,,,,,,,,,,,,,,,,,10,25,M,N,2023-01-05_10h34.15.872,Flanker,2022.2.4,None,
Przez najbliższe 5 minut proszę kolorować otrzymaną kolorwankę z mandalą. Naciśnij spację aby zacząć odmierzać czas,>><>>,,0,0,0,0,0,0,0,3,,,,,,,,,168.07862945098900,169.00357395689900,space,11.29020575794860,180.30978574499000,480.3169509639270,482.3058715319490,space,13.015900922007900,495.33759705198500,504.3215021719230,504.3215021719230,right,0,1.7936713709496000,,,,,,,,,,,,10,25,M,N,2023-01-05_10h34.15.872,Flanker,2022.2.4,None,
Przez najbliższe 5 minut proszę kolorować otrzymaną kolorwankę z mandalą. Naciśnij spację aby zacząć odmierzać czas,<<<<<,,0,0,0,0,0,1,1,0,,,,,,,,,,,,,,,,,,,507.1269345639740,507.1269345639740,left,0,1.7889512960100500,,,,,,,,,,,,10,25,M,N,2023-01-05_10h34.15.872,Flanker,2022.2.4,None,
Przez najbliższe 5 minut proszę kolorować otrzymaną kolorwankę z mandalą. Naciśnij spację aby zacząć odmierzać czas,-->--,,0,0,0,0,0,2,2,5,,,,,,,,,,,,,,,,,,,509.92574383691000,509.92574383691000,right,0,0.9589048420311880,,,,,,,,,,,,10,25,M,N,2023-01-05_10h34.15.872,Flanker,2022.2.4,None,
Przez najbliższe 5 minut proszę kolorować otrzymaną kolorwankę z mandalą. Naciśnij spację aby zacząć odmierzać czas,>>>>>,,0,0,0,0,0,3,3,1,,,,,,,,,,,,,,,,,,,511.9138358599740,511.9138358599740,right,0,0.7270111410180110,,,,,,,,,,,,10,25,M,N,2023-01-05_10h34.15.872,Flanker,2022.2.4,None,
Przez najbliższe 5 minut proszę kolorować otrzymaną kolorwankę z mandalą. Naciśnij spację aby zacząć odmierzać czas,<<><<,,0,0,0,0,0,4,4,2,,,,,,,,,,,,,,,,,,,513.6489650029690,513.6489650029690,right,0,1.0947273980127600,,,,,,,,,,,,10,25,M,N,2023-01-05_10h34.15.872,Flanker,2022.2.4,None,
Przez najbliższe 5 minut proszę kolorować otrzymaną kolorwankę z mandalą. Naciśnij spację aby zacząć odmierzać czas,--<--,,0,0,0,0,0,5,5,4,,,,,,,,,,,,,,,,,,,515.7437125119610,515.7437125119610,left,0,0.599978549988009,,,,,,,,,,,,10,25,M,N,2023-01-05_10h34.15.872,Flanker,2022.2.4,None,
Przez najbliższe 5 minut proszę kolorować otrzymaną kolorwankę z mandalą. Naciśnij spację aby zacząć odmierzać czas,,-->--,0,0,0,0,,,,,0,0,0,56,,,,,,,,,,,,,,,,,,,,517.365666912985,525.3671391269890,525.3671391269890,right,0,0.49692978302482500,524.3829220070040,,,,,10,25,M,N,2023-01-05_10h34.15.872,Flanker,2022.2.4,None,
Przez najbliższe 5 minut proszę kolorować otrzymaną kolorwankę z mandalą. Naciśnij spację aby zacząć odmierzać czas,,<<><<,0,0,0,0,,,,,0,1,1,22,,,,,,,,,,,,,,,,,,,,,526.8710638699120,526.8710638699120,right,0,0.7456094839144500,,,,,,10,25,M,N,2023-01-05_10h34.15.872,Flanker,2022.2.4,None,
Przez najbliższe 5 minut proszę kolorować otrzymaną kolorwankę z mandalą. Naciśnij spację aby zacząć odmierzać czas,,>><>>,0,0,0,0,,,,,0,2,2,35,,,,,,,,,,,,,,,,,,,,,528.6207027949860,528.6207027949860,left,0,0.5069169780472290,,,,,,10,25,M,N,2023-01-05_10h34.15.872,Flanker,2022.2.4,None,
Przez najbliższe 5 minut proszę kolorować otrzymaną kolorwankę z mandalą. Naciśnij spację aby zacząć odmierzać czas,,>>>>>,0,0,0,0,,,,,0,3,3,0,,,,,,,,,,,,,,,,,,,,,530.1393255660080,530.1393255660080,right,0,0.4362383559346200,,,,,,10,25,M,N,2023-01-05_10h34.15.872,Flanker,2022.2.4,None,
Przez najbliższe 5 minut proszę kolorować otrzymaną kolorwankę z mandalą. Naciśnij spację aby zacząć odmierzać czas,,>><>>,0,0,0,0,,,,,0,4,4,38,,,,,,,,,,,,,,,,,,,,,531.5828555999320,531.5828555999320,left,0,0.4527702369960030,,,,,,10,25,M,N,2023-01-05_10h34.15.872,Flanker,2022.2.4,None,
Przez najbliższe 5 minut proszę kolorować otrzymaną kolorwankę z mandalą. Naciśnij spację aby zacząć odmierzać czas,,<<<<<,0,0,0,0,,,,,0,5,5,17,,,,,,,,,,,,,,,,,,,,,533.0423600319770,533.0423600319770,left,0,0.4682096430333330,,,,,,10,25,M,N,2023-01-05_10h34.15.872,Flanker,2022.2.4,None,
Przez najbliższe 5 minut proszę kolorować otrzymaną kolorwankę z mandalą. Naciśnij spację aby zacząć odmierzać czas,,>><>>,0,0,0,0,,,,,0,6,6,34,,,,,,,,,,,,,,,,,,,,,534.519695164985,534.519695164985,right,0,0.4297996350796890,,,,,,10,25,M,N,2023-01-05_10h34.15.872,Flanker,2022.2.4,None,
Przez najbliższe 5 minut proszę kolorować otrzymaną kolorwankę z mandalą. Naciśnij spację aby zacząć odmierzać czas,,-->--,0,0,0,0,,,,,0,7,7,57,,,,,,,,,,,,,,,,,,,,,535.9555861569240,535.9555861569240,right,0,0.5847953960765150,,,,,,10,25,M,N,2023-01-05_10h34.15.872,Flanker,2022.2.4,None,
Przez najbliższe 5 minut proszę kolorować otrzymaną kolorwankę z mandalą. Naciśnij spację aby zacząć odmierzać czas,,>>>>>,0,0,0,0,,,,,0,8,8,7,,,,,,,,,,,,,,,,,,,,,537.5554597399900,537.5554597399900,right,0,0.5470789551036430,,,,,,10,25,M,N,2023-01-05_10h34.15.872,Flanker,2022.2.4,None,
Przez najbliższe 5 minut proszę kolorować otrzymaną kolorwankę z mandalą. Naciśnij spację aby zacząć odmierzać czas,,--<--,0,0,0,0,,,,,0,9,9,45,,,,,,,,,,,,,,,,,,,,,539.1086316289150,539.1086316289150,left,0,0.3967531149974090,,,,,,10,25,M,N,2023-01-05_10h34.15.872,Flanker,2022.2.4,None,
Przez najbliższe 5 minut proszę kolorować otrzymaną kolorwankę z mandalą. Naciśnij spację aby zacząć odmierzać czas,,<<><<,0,0,0,0,,,,,0,10,10,27,,,,,,,,,,,,,,,,,,,,,540.5157297909030,540.5157297909030,right,0,0.7746889010304590,,,,,,10,25,M,N,2023-01-05_10h34.15.872,Flanker,2022.2.4,None,
Przez najbliższe 5 minut proszę kolorować otrzymaną kolorwankę z mandalą. Naciśnij spację aby zacząć odmierzać czas,,--<--,0,0,0,0,,,,,0,11,11,44,,,,,,,,,,,,,,,,,,,,,542.3019306829670,542.3019306829670,left,0,0.3774830079637470,,,,,,10,25,M,N,2023-01-05_10h34.15.872,Flanker,2022.2.4,None,
Przez najbliższe 5 minut proszę kolorować otrzymaną kolorwankę z mandalą. Naciśnij spację aby zacząć odmierzać czas,,-->--,0,0,0,0,,,,,0,12,12,53,,,,,,,,,,,,,,,,,,,,,543.6922276349510,543.6922276349510,right,0,0.5340706289280210,,,,,,10,25,M,N,2023-01-05_10h34.15.872,Flanker,2022.2.4,None,
Przez najbliższe 5 minut proszę kolorować otrzymaną kolorwankę z mandalą. Naciśnij spację aby zacząć odmierzać czas,,-->--,0,0,0,0,,,,,0,13,13,55,,,,,,,,,,,,,,,,,,,,,545.2423929179790,545.2423929179790,right,0,0.5297856800025330,,,,,,10,25,M,N,2023-01-05_10h34.15.872,Flanker,2022.2.4,None,
Przez najbliższe 5 minut proszę kolorować otrzymaną kolorwankę z mandalą. Naciśnij spację aby zacząć odmierzać czas,,<<><<,0,0,0,0,,,,,0,14,14,29,,,,,,,,,,,,,,,,,,,,,546.7867159849270,546.7867159849270,right,0,0.7075619579991330,,,,,,10,25,M,N,2023-01-05_10h34.15.872,Flanker,2022.2.4,None,
Przez najbliższe 5 minut proszę kolorować otrzymaną kolorwankę z mandalą. Naciśnij spację aby zacząć odmierzać czas,,>><>>,0,0,0,0,,,,,0,15,15,36,,,,,,,,,,,,,,,,,,,,,548.5033134199910,548.5033134199910,left,0,0.5627907860325650,,,,,,10,25,M,N,2023-01-05_10h34.15.872,Flanker,2022.2.4,None,
Przez najbliższe 5 minut proszę kolorować otrzymaną kolorwankę z mandalą. Naciśnij spację aby zacząć odmierzać czas,,-->--,0,0,0,0,,,,,0,16,16,54,,,,,,,,,,,,,,,,,,,,,550.0751428339860,550.0751428339860,right,0,0.4431559229269620,,,,,,10,25,M,N,2023-01-05_10h34.15.872,Flanker,2022.2.4,None,
Przez najbliższe 5 minut proszę kolorować otrzymaną kolorwankę z mandalą. Naciśnij spację aby zacząć odmierzać czas,,--<--,0,0,0,0,,,,,0,17,17,49,,,,,,,,,,,,,,,,,,,,,551.5317798969340,551.5317798969340,left,0,0.6214041019557040,,,,,,10,25,M,N,2023-01-05_10h34.15.872,Flanker,2022.2.4,None,
Przez najbliższe 5 minut proszę kolorować otrzymaną kolorwankę z mandalą. Naciśnij spację aby zacząć odmierzać czas,,<<><<,0,0,0,0,,,,,0,18,18,25,,,,,,,,,,,,,,,,,,,,,553.1684926999730,553.1684926999730,right,0,0.5746497539803390,,,,,,10,25,M,N,2023-01-05_10h34.15.872,Flanker,2022.2.4,None,
Przez najbliższe 5 minut proszę kolorować otrzymaną kolorwankę z mandalą. Naciśnij spację aby zacząć odmierzać czas,,--<--,0,0,0,0,,,,,0,19,19,41,,,,,,,,,,,,,,,,,,,,,554.7530646229860,554.7530646229860,left,0,0.44998334697447700,,,,,,10,25,M,N,2023-01-05_10h34.15.872,Flanker,2022.2.4,None,
Przez najbliższe 5 minut proszę kolorować otrzymaną kolorwankę z mandalą. Naciśnij spację aby zacząć odmierzać czas,,--<--,0,0,0,0,,,,,0,20,20,47,,,,,,,,,,,,,,,,,,,,,556.2086545849450,556.2086545849450,right,0,0.30126161489170000,,,,,,10,25,M,N,2023-01-05_10h34.15.872,Flanker,2022.2.4,None,
Przez najbliższe 5 minut proszę kolorować otrzymaną kolorwankę z mandalą. Naciśnij spację aby zacząć odmierzać czas,,>><>>,0,0,0,0,,,,,0,21,21,33,,,,,,,,,,,,,,,,,,,,,557.5251926250060,557.5251926250060,left,0,0.5917744109174240,,,,,,10,25,M,N,2023-01-05_10h34.15.872,Flanker,2022.2.4,None,
Przez najbliższe 5 minut proszę kolorować otrzymaną kolorwankę z mandalą. Naciśnij spację aby zacząć odmierzać czas,,>>>>>,0,0,0,0,,,,,0,22,22,3,,,,,,,,,,,,,,,,,,,,,559.1163892499170,559.1163892499170,right,0,0.49952643597498500,,,,,,10,25,M,N,2023-01-05_10h34.15.872,Flanker,2022.2.4,None,
Przez najbliższe 5 minut proszę kolorować otrzymaną kolorwankę z mandalą. Naciśnij spację aby zacząć odmierzać czas,,<<<<<,0,0,0,0,,,,,0,23,23,16,,,,,,,,,,,,,,,,,,,,,560.6316909499000,560.6316909499000,left,0,0.42730629595462200,,,,,,10,25,M,N,2023-01-05_10h34.15.872,Flanker,2022.2.4,None,
Przez najbliższe 5 minut proszę kolorować otrzymaną kolorwankę z mandalą. Naciśnij spację aby zacząć odmierzać czas,,>>>>>,0,0,0,0,,,,,0,24,24,9,,,,,,,,,,,,,,,,,,,,,562.0683146319350,562.0683146319350,right,0,0.48065377806779000,,,,,,10,25,M,N,2023-01-05_10h34.15.872,Flanker,2022.2.4,None,
Przez najbliższe 5 minut proszę kolorować otrzymaną kolorwankę z mandalą. Naciśnij spację aby zacząć odmierzać czas,,>>>>>,0,0,0,0,,,,,0,25,25,4,,,,,,,,,,,,,,,,,,,,,563.5477616139690,563.5477616139690,right,0,0.38996491592843100,,,,,,10,25,M,N,2023-01-05_10h34.15.872,Flanker,2022.2.4,None,
Przez najbliższe 5 minut proszę kolorować otrzymaną kolorwankę z mandalą. Naciśnij spację aby zacząć odmierzać czas,,>>>>>,0,0,0,0,,,,,0,26,26,8,,,,,,,,,,,,,,,,,,,,,564.9511971028990,564.9511971028990,right,0,0.39767441200092400,,,,,,10,25,M,N,2023-01-05_10h34.15.872,Flanker,2022.2.4,None,
Przez najbliższe 5 minut proszę kolorować otrzymaną kolorwankę z mandalą. Naciśnij spację aby zacząć odmierzać czas,,-->--,0,0,0,0,,,,,0,27,27,52,,,,,,,,,,,,,,,,,,,,,566.367991240928,566.367991240928,right,0,0.4908839549170810,,,,,,10,25,M,N,2023-01-05_10h34.15.872,Flanker,2022.2.4,None,
Przez najbliższe 5 minut proszę kolorować otrzymaną kolorwankę z mandalą. Naciśnij spację aby zacząć odmierzać czas,,>>>>>,0,0,0,0,,,,,0,28,28,6,,,,,,,,,,,,,,,,,,,,,567.8652550299890,567.8652550299890,right,0,0.4344916749978440,,,,,,10,25,M,N,2023-01-05_10h34.15.872,Flanker,2022.2.4,None,
Przez najbliższe 5 minut proszę kolorować otrzymaną kolorwankę z mandalą. Naciśnij spację aby zacząć odmierzać czas,,--<--,0,0,0,0,,,,,0,29,29,46,,,,,,,,,,,,,,,,,,,,,569.3082501959290,569.3082501959290,left,0,0.48264084302354600,,,,,,10,25,M,N,2023-01-05_10h34.15.872,Flanker,2022.2.4,None,
Przez najbliższe 5 minut proszę kolorować otrzymaną kolorwankę z mandalą. Naciśnij spację aby zacząć odmierzać czas,,<<<<<,0,0,0,0,,,,,0,30,30,12,,,,,,,,,,,,,,,,,,,,,570.8048322550020,570.8048322550020,left,0,0.8768804229330270,,,,,,10,25,M,N,2023-01-05_10h34.15.872,Flanker,2022.2.4,None,
Przez najbliższe 5 minut proszę kolorować otrzymaną kolorwankę z mandalą. Naciśnij spację aby zacząć odmierzać czas,,<<><<,0,0,0,0,,,,,0,31,31,23,,,,,,,,,,,,,,,,,,,,,572.6875008909270,572.6875008909270,right,0,0.5281500429846350,,,,,,10,25,M,N,2023-01-05_10h34.15.872,Flanker,2022.2.4,None,
Przez najbliższe 5 minut proszę kolorować otrzymaną kolorwankę z mandalą. Naciśnij spację aby zacząć odmierzać czas,,<<<<<,0,0,0,0,,,,,0,32,32,14,,,,,,,,,,,,,,,,,,,,,574.2150101029550,574.2150101029550,left,0,0.3956876570591700,,,,,,10,25,M,N,2023-01-05_10h34.15.872,Flanker,2022.2.4,None,
Przez najbliższe 5 minut proszę kolorować otrzymaną kolorwankę z mandalą. Naciśnij spację aby zacząć odmierzać czas,,--<--,0,0,0,0,,,,,0,33,33,42,,,,,,,,,,,,,,,,,,,,,575.6176829430040,575.6176829430040,left,0,0.515796210966073,,,,,,10,25,M,N,2023-01-05_10h34.15.872,Flanker,2022.2.4,None,
Przez najbliższe 5 minut proszę kolorować otrzymaną kolorwankę z mandalą. Naciśnij spację aby zacząć odmierzać czas,,<<<<<,0,0,0,0,,,,,0,34,34,13,,,,,,,,,,,,,,,,,,,,,577.1416320009160,577.1416320009160,left,0,0.37378881697077300,,,,,,10,25,M,N,2023-01-05_10h34.15.872,Flanker,2022.2.4,None,
Przez najbliższe 5 minut proszę kolorować otrzymaną kolorwankę z mandalą. Naciśnij spację aby zacząć odmierzać czas,,>><>>,0,0,0,0,,,,,0,35,35,32,,,,,,,,,,,,,,,,,,,,,578.5248607699760,578.5248607699760,left,0,0.6095718080177900,,,,,,10,25,M,N,2023-01-05_10h34.15.872,Flanker,2022.2.4,None,
Przez najbliższe 5 minut proszę kolorować otrzymaną kolorwankę z mandalą. Naciśnij spację aby zacząć odmierzać czas,,>><>>,0,0,0,0,,,,,0,36,36,37,,,,,,,,,,,,,,,,,,,,,580.1342817669500,580.1342817669500,left,0,0.5311997389653700,,,,,,10,25,M,N,2023-01-05_10h34.15.872,Flanker,2022.2.4,None,
Przez najbliższe 5 minut proszę kolorować otrzymaną kolorwankę z mandalą. Naciśnij spację aby zacząć odmierzać czas,,<<<<<,0,0,0,0,,,,,0,37,37,10,,,,,,,,,,,,,,,,,,,,,581.6708867599960,581.6708867599960,left,0,0.42052618006710000,,,,,,10,25,M,N,2023-01-05_10h34.15.872,Flanker,2022.2.4,None,
Przez najbliższe 5 minut proszę kolorować otrzymaną kolorwankę z mandalą. Naciśnij spację aby zacząć odmierzać czas,,<<><<,0,0,0,0,,,,,0,38,38,28,,,,,,,,,,,,,,,,,,,,,583.103007911006,583.103007911006,right,0,0.566408577025868,,,,,,10,25,M,N,2023-01-05_10h34.15.872,Flanker,2022.2.4,None,
Przez najbliższe 5 minut proszę kolorować otrzymaną kolorwankę z mandalą. Naciśnij spację aby zacząć odmierzać czas,,>>>>>,0,0,0,0,,,,,0,39,39,1,,,,,,,,,,,,,,,,,,,,,584.6845647639130,584.6845647639130,right,0,0.4898126929765570,,,,,,10,25,M,N,2023-01-05_10h34.15.872,Flanker,2022.2.4,None,
Przez najbliższe 5 minut proszę kolorować otrzymaną kolorwankę z mandalą. Naciśnij spację aby zacząć odmierzać czas,,>><>>,0,0,0,0,,,,,0,40,40,30,,,,,,,,,,,,,,,,,,,,,586.186108698952,586.186108698952,left,0,0.6542049889685590,,,,,,10,25,M,N,2023-01-05_10h34.15.872,Flanker,2022.2.4,None,
Przez najbliższe 5 minut proszę kolorować otrzymaną kolorwankę z mandalą. Naciśnij spację aby zacząć odmierzać czas,,<<<<<,0,0,0,0,,,,,0,41,41,11,,,,,,,,,,,,,,,,,,,,,587.8474916229030,587.8474916229030,left,0,0.4587014679564160,,,,,,10,25,M,N,2023-01-05_10h34.15.872,Flanker,2022.2.4,None,
Przez najbliższe 5 minut proszę kolorować otrzymaną kolorwankę z mandalą. Naciśnij spację aby zacząć odmierzać czas,,--<--,0,0,0,0,,,,,0,42,42,48,,,,,,,,,,,,,,,,,,,,,589.3256907919420,589.3256907919420,left,0,0.419366913032718,,,,,,10,25,M,N,2023-01-05_10h34.15.872,Flanker,2022.2.4,None,
Przez najbliższe 5 minut proszę kolorować otrzymaną kolorwankę z mandalą. Naciśnij spację aby zacząć odmierzać czas,,<<<<<,0,0,0,0,,,,,0,43,43,19,,,,,,,,,,,,,,,,,,,,,590.7474203140010,590.7474203140010,left,0,0.41979246493428900,,,,,,10,25,M,N,2023-01-05_10h34.15.872,Flanker,2022.2.4,None,
Przez najbliższe 5 minut proszę kolorować otrzymaną kolorwankę z mandalą. Naciśnij spację aby zacząć odmierzać czas,,<<><<,0,0,0,0,,,,,0,44,44,20,,,,,,,,,,,,,,,,,,,,,592.1760721619940,592.1760721619940,right,0,0.5080683010164650,,,,,,10,25,M,N,2023-01-05_10h34.15.872,Flanker,2022.2.4,None,
Przez najbliższe 5 minut proszę kolorować otrzymaną kolorwankę z mandalą. Naciśnij spację aby zacząć odmierzać czas,,>>>>>,0,0,0,0,,,,,0,45,45,2,,,,,,,,,,,,,,,,,,,,,593.6807348909790,593.6807348909790,right,0,0.43538905400782800,,,,,,10,25,M,N,2023-01-05_10h34.15.872,Flanker,2022.2.4,None,
Przez najbliższe 5 minut proszę kolorować otrzymaną kolorwankę z mandalą. Naciśnij spację aby zacząć odmierzać czas,,<<><<,0,0,0,0,,,,,0,46,46,26,,,,,,,,,,,,,,,,,,,,,595.1245984099810,595.1245984099810,right,0,0.5935482759960000,,,,,,10,25,M,N,2023-01-05_10h34.15.872,Flanker,2022.2.4,None,
Przez najbliższe 5 minut proszę kolorować otrzymaną kolorwankę z mandalą. Naciśnij spację aby zacząć odmierzać czas,,--<--,0,0,0,0,,,,,0,47,47,43,,,,,,,,,,,,,,,,,,,,,596.7195769379610,596.7195769379610,left,0,0.5674854099052030,,,,,,10,25,M,N,2023-01-05_10h34.15.872,Flanker,2022.2.4,None,
Przez najbliższe 5 minut proszę kolorować otrzymaną kolorwankę z mandalą. Naciśnij spację aby zacząć odmierzać czas,,>>>>> ,0,0,0,0,,,,,0,48,48,5,,,,,,,,,,,,,,,,,,,,,598.2863037229980,598.2863037229980,right,0,0.36861890205182100,,,,,,10,25,M,N,2023-01-05_10h34.15.872,Flanker,2022.2.4,None,
Przez najbliższe 5 minut proszę kolorować otrzymaną kolorwankę z mandalą. Naciśnij spację aby zacząć odmierzać czas,,<<><<,0,0,0,0,,,,,0,49,49,24,,,,,,,,,,,,,,,,,,,,,599.6715700050120,599.6715700050120,right,0,0.3953185291029510,,,,,,10,25,M,N,2023-01-05_10h34.15.872,Flanker,2022.2.4,None,
Przez najbliższe 5 minut proszę kolorować otrzymaną kolorwankę z mandalą. Naciśnij spację aby zacząć odmierzać czas,,-->--,0,0,0,0,,,,,0,50,50,51,,,,,,,,,,,,,,,,,,,,,601.0809957640010,601.0809957640010,right,0,0.35304678697139000,,,,,,10,25,M,N,2023-01-05_10h34.15.872,Flanker,2022.2.4,None,
Przez najbliższe 5 minut proszę kolorować otrzymaną kolorwankę z mandalą. Naciśnij spację aby zacząć odmierzać czas,,<<><<,0,0,0,0,,,,,0,51,51,21,,,,,,,,,,,,,,,,,,,,,602.4413155869120,602.4413155869120,right,0,0.46365935797803100,,,,,,10,25,M,N,2023-01-05_10h34.15.872,Flanker,2022.2.4,None,
Przez najbliższe 5 minut proszę kolorować otrzymaną kolorwankę z mandalą. Naciśnij spację aby zacząć odmierzać czas,,--<--,0,0,0,0,,,,,0,52,52,40,,,,,,,,,,,,,,,,,,,,,603.9224359109070,603.9224359109070,left,0,0.6533627870958300,,,,,,10,25,M,N,2023-01-05_10h34.15.872,Flanker,2022.2.4,None,
Przez najbliższe 5 minut proszę kolorować otrzymaną kolorwankę z mandalą. Naciśnij spację aby zacząć odmierzać czas,,-->--,0,0,0,0,,,,,0,53,53,58,,,,,,,,,,,,,,,,,,,,,605.5911208639150,605.5911208639150,right,0,0.3517220370704310,,,,,,10,25,M,N,2023-01-05_10h34.15.872,Flanker,2022.2.4,None,
Przez najbliższe 5 minut proszę kolorować otrzymaną kolorwankę z mandalą. Naciśnij spację aby zacząć odmierzać czas,,<<<<<,0,0,0,0,,,,,0,54,54,18,,,,,,,,,,,,,,,,,,,,,606.9526242859430,606.9526242859430,left,0,0.4701865289825950,,,,,,10,25,M,N,2023-01-05_10h34.15.872,Flanker,2022.2.4,None,
Przez najbliższe 5 minut proszę kolorować otrzymaną kolorwankę z mandalą. Naciśnij spację aby zacząć odmierzać czas,,>><>>,0,0,0,0,,,,,0,55,55,39,,,,,,,,,,,,,,,,,,,,,608.4346407199050,608.4346407199050,left,0,0.6531937950057910,,,,,,10,25,M,N,2023-01-05_10h34.15.872,Flanker,2022.2.4,None,
Przez najbliższe 5 minut proszę kolorować otrzymaną kolorwankę z mandalą. Naciśnij spację aby zacząć odmierzać czas,,>><>>,0,0,0,0,,,,,0,56,56,31,,,,,,,,,,,,,,,,,,,,,610.0925904599720,610.0925904599720,right,0,0.33807384106330600,,,,,,10,25,M,N,2023-01-05_10h34.15.872,Flanker,2022.2.4,None,
Przez najbliższe 5 minut proszę kolorować otrzymaną kolorwankę z mandalą. Naciśnij spację aby zacząć odmierzać czas,,<<<<<,0,0,0,0,,,,,0,57,57,15,,,,,,,,,,,,,,,,,,,,,611.4243840049020,611.4243840049020,left,0,0.38926749397069200,,,,,,10,25,M,N,2023-01-05_10h34.15.872,Flanker,2022.2.4,None,
Przez najbliższe 5 minut proszę kolorować otrzymaną kolorwankę z mandalą. Naciśnij spację aby zacząć odmierzać czas,,-->--,0,0,0,0,,,,,0,58,58,50,,,,,,,,,,,,,,,,,,,,,612.8189170389670,612.8189170389670,right,0,0.46988520002923900,,,,,,10,25,M,N,2023-01-05_10h34.15.872,Flanker,2022.2.4,None,
Przez najbliższe 5 minut proszę kolorować otrzymaną kolorwankę z mandalą. Naciśnij spację aby zacząć odmierzać czas,,-->--,0,0,0,0,,,,,0,59,59,59,,,,,,,,,,,,,,,,,,,,,614.3013009770080,614.3013009770080,right,0,0.45842322800308500,,,,,,10,25,M,N,2023-01-05_10h34.15.872,Flanker,2022.2.4,None,
Przez najbliższe 5 minut proszę kolorować otrzymaną kolorwankę z mandalą. Naciśnij spację aby zacząć odmierzać czas,,,0,0,0,0,,,,,,,,,,,,,,,,,,,,,,,,,,,,,,,,,,,,,,,10,25,M,N,2023-01-05_10h34.15.872,Flanker,2022.2.4,None,
Przez najbliższe 5 minut proszę kolorować otrzymaną pustą kartkę. Naciśnij spację aby zacząć odmierzać czas,>>>>>,,0,1,1,1,0,0,0,1,,,,,,,,,614.8115941459550,615.7826499039070,space,14.872093184967500,630.7063905419780,930.6899984299670,932.666786961956,space,7.465773607953450,940.1638096469690,949.1481491139860,949.1481491139860,right,0,0.5170888269785790,,,,,,,,,,,,10,25,M,N,2023-01-05_10h34.15.872,Flanker,2022.2.4,None,
Przez najbliższe 5 minut proszę kolorować otrzymaną pustą kartkę. Naciśnij spację aby zacząć odmierzać czas,<<<<<,,0,1,1,1,0,1,1,0,,,,,,,,,,,,,,,,,,,950.6651677899060,950.6651677899060,left,0,0.42484096495900300,,,,,,,,,,,,10,25,M,N,2023-01-05_10h34.15.872,Flanker,2022.2.4,None,
Przez najbliższe 5 minut proszę kolorować otrzymaną pustą kartkę. Naciśnij spację aby zacząć odmierzać czas,<<><<,,0,1,1,1,0,2,2,2,,,,,,,,,,,,,,,,,,,952.0985235699920,952.0985235699920,right,0,0.5523231970146300,,,,,,,,,,,,10,25,M,N,2023-01-05_10h34.15.872,Flanker,2022.2.4,None,
Przez najbliższe 5 minut proszę kolorować otrzymaną pustą kartkę. Naciśnij spację aby zacząć odmierzać czas,-->--,,0,1,1,1,0,3,3,5,,,,,,,,,,,,,,,,,,,953.6502834499120,953.6502834499120,right,0,0.4306675709085540,,,,,,,,,,,,10,25,M,N,2023-01-05_10h34.15.872,Flanker,2022.2.4,None,
Przez najbliższe 5 minut proszę kolorować otrzymaną pustą kartkę. Naciśnij spację aby zacząć odmierzać czas,--<--,,0,1,1,1,0,4,4,4,,,,,,,,,,,,,,,,,,,955.0934430980120,955.0934430980120,left,0,0.4284005460795020,,,,,,,,,,,,10,25,M,N,2023-01-05_10h34.15.872,Flanker,2022.2.4,None,
Przez najbliższe 5 minut proszę kolorować otrzymaną pustą kartkę. Naciśnij spację aby zacząć odmierzać czas,>><>>,,0,1,1,1,0,5,5,3,,,,,,,,,,,,,,,,,,,956.5369154459330,956.5369154459330,left,0,0.5189549350179730,,,,,,,,,,,,10,25,M,N,2023-01-05_10h34.15.872,Flanker,2022.2.4,None,
Przez najbliższe 5 minut proszę kolorować otrzymaną pustą kartkę. Naciśnij spację aby zacząć odmierzać czas,,-->--,0,1,1,1,,,,,0,0,0,59,,,,,,,,,,,,,,,,,,,,958.0668351789940,966.0655080149880,966.0655080149880,right,0,0.5110273390309890,965.0727369479140,,,,,10,25,M,N,2023-01-05_10h34.15.872,Flanker,2022.2.4,None,
Przez najbliższe 5 minut proszę kolorować otrzymaną pustą kartkę. Naciśnij spację aby zacząć odmierzać czas,,-->--,0,1,1,1,,,,,0,1,1,57,,,,,,,,,,,,,,,,,,,,,967.5845947029300,967.5845947029300,right,0,0.42390887497458600,,,,,,10,25,M,N,2023-01-05_10h34.15.872,Flanker,2022.2.4,None,
Przez najbliższe 5 minut proszę kolorować otrzymaną pustą kartkę. Naciśnij spację aby zacząć odmierzać czas,,-->--,0,1,1,1,,,,,0,2,2,50,,,,,,,,,,,,,,,,,,,,,969.0102149909360,969.0102149909360,right,0,0.3442649750504640,,,,,,10,25,M,N,2023-01-05_10h34.15.872,Flanker,2022.2.4,None,
Przez najbliższe 5 minut proszę kolorować otrzymaną pustą kartkę. Naciśnij spację aby zacząć odmierzać czas,,--<--,0,1,1,1,,,,,0,3,3,49,,,,,,,,,,,,,,,,,,,,,970.3764075489020,970.3764075489020,left,0,0.4660546650411560,,,,,,10,25,M,N,2023-01-05_10h34.15.872,Flanker,2022.2.4,None,
Przez najbliższe 5 minut proszę kolorować otrzymaną pustą kartkę. Naciśnij spację aby zacząć odmierzać czas,,>>>>>,0,1,1,1,,,,,0,4,4,4,,,,,,,,,,,,,,,,,,,,,971.8598819419280,971.8598819419280,right,0,0.4136220100335780,,,,,,10,25,M,N,2023-01-05_10h34.15.872,Flanker,2022.2.4,None,
Przez najbliższe 5 minut proszę kolorować otrzymaną pustą kartkę. Naciśnij spację aby zacząć odmierzać czas,,<<><<,0,1,1,1,,,,,0,5,5,23,,,,,,,,,,,,,,,,,,,,,973.2832286079650,973.2832286079650,right,0,0.4312399459304290,,,,,,10,25,M,N,2023-01-05_10h34.15.872,Flanker,2022.2.4,None,
Przez najbliższe 5 minut proszę kolorować otrzymaną pustą kartkę. Naciśnij spację aby zacząć odmierzać czas,,<<<<<,0,1,1,1,,,,,0,6,6,15,,,,,,,,,,,,,,,,,,,,,974.7188535099850,974.7188535099850,left,0,0.4235021360218530,,,,,,10,25,M,N,2023-01-05_10h34.15.872,Flanker,2022.2.4,None,
Przez najbliższe 5 minut proszę kolorować otrzymaną pustą kartkę. Naciśnij spację aby zacząć odmierzać czas,,>>>>>,0,1,1,1,,,,,0,7,7,1,,,,,,,,,,,,,,,,,,,,,976.1496811939870,976.1496811939870,right,0,0.36655877996236100,,,,,,10,25,M,N,2023-01-05_10h34.15.872,Flanker,2022.2.4,None,
Przez najbliższe 5 minut proszę kolorować otrzymaną pustą kartkę. Naciśnij spację aby zacząć odmierzać czas,,<<<<<,0,1,1,1,,,,,0,8,8,11,,,,,,,,,,,,,,,,,,,,,977.5278497299880,977.5278497299880,left,0,0.3905504000140350,,,,,,10,25,M,N,2023-01-05_10h34.15.872,Flanker,2022.2.4,None,
Przez najbliższe 5 minut proszę kolorować otrzymaną pustą kartkę. Naciśnij spację aby zacząć odmierzać czas,,>><>>,0,1,1,1,,,,,0,9,9,37,,,,,,,,,,,,,,,,,,,,,978.9272379769250,978.9272379769250,left,0,0.5770907989935950,,,,,,10,25,M,N,2023-01-05_10h34.15.872,Flanker,2022.2.4,None,
Przez najbliższe 5 minut proszę kolorować otrzymaną pustą kartkę. Naciśnij spację aby zacząć odmierzać czas,,--<--,0,1,1,1,,,,,0,10,10,41,,,,,,,,,,,,,,,,,,,,,980.5131061759310,980.5131061759310,left,0,0.6272321050055330,,,,,,10,25,M,N,2023-01-05_10h34.15.872,Flanker,2022.2.4,None,
Przez najbliższe 5 minut proszę kolorować otrzymaną pustą kartkę. Naciśnij spację aby zacząć odmierzać czas,,--<--,0,1,1,1,,,,,0,11,11,43,,,,,,,,,,,,,,,,,,,,,982.1422852379040,982.1422852379040,left,0,0.4209143779007720,,,,,,10,25,M,N,2023-01-05_10h34.15.872,Flanker,2022.2.4,None,
Przez najbliższe 5 minut proszę kolorować otrzymaną pustą kartkę. Naciśnij spację aby zacząć odmierzać czas,,<<<<<,0,1,1,1,,,,,0,12,12,12,,,,,,,,,,,,,,,,,,,,,983.5699352090010,983.5699352090010,left,0,0.4171502540120860,,,,,,10,25,M,N,2023-01-05_10h34.15.872,Flanker,2022.2.4,None,
Przez najbliższe 5 minut proszę kolorować otrzymaną pustą kartkę. Naciśnij spację aby zacząć odmierzać czas,,>><>>,0,1,1,1,,,,,0,13,13,33,,,,,,,,,,,,,,,,,,,,,985.0097297739700,985.0097297739700,left,0,0.5484544700011610,,,,,,10,25,M,N,2023-01-05_10h34.15.872,Flanker,2022.2.4,None,
Przez najbliższe 5 minut proszę kolorować otrzymaną pustą kartkę. Naciśnij spację aby zacząć odmierzać czas,,<<><<,0,1,1,1,,,,,0,14,14,27,,,,,,,,,,,,,,,,,,,,,986.5699402849420,986.5699402849420,right,0,0.5061674619792030,,,,,,10,25,M,N,2023-01-05_10h34.15.872,Flanker,2022.2.4,None,
Przez najbliższe 5 minut proszę kolorować otrzymaną pustą kartkę. Naciśnij spację aby zacząć odmierzać czas,,<<<<<,0,1,1,1,,,,,0,15,15,13,,,,,,,,,,,,,,,,,,,,,988.086494591902,988.086494591902,left,0,0.4015859659994020,,,,,,10,25,M,N,2023-01-05_10h34.15.872,Flanker,2022.2.4,None,
Przez najbliższe 5 minut proszę kolorować otrzymaną pustą kartkę. Naciśnij spację aby zacząć odmierzać czas,,-->--,0,1,1,1,,,,,0,16,16,53,,,,,,,,,,,,,,,,,,,,,989.4926059439310,989.4926059439310,right,0,0.3335003349930050,,,,,,10,25,M,N,2023-01-05_10h34.15.872,Flanker,2022.2.4,None,
Przez najbliższe 5 minut proszę kolorować otrzymaną pustą kartkę. Naciśnij spację aby zacząć odmierzać czas,,-->--,0,1,1,1,,,,,0,17,17,56,,,,,,,,,,,,,,,,,,,,,990.8316928360150,990.8316928360150,right,0,0.5222834510495890,,,,,,10,25,M,N,2023-01-05_10h34.15.872,Flanker,2022.2.4,None,
Przez najbliższe 5 minut proszę kolorować otrzymaną pustą kartkę. Naciśnij spację aby zacząć odmierzać czas,,>>>>>,0,1,1,1,,,,,0,18,18,2,,,,,,,,,,,,,,,,,,,,,992.3698506179500,992.3698506179500,right,0,0.3720335019752380,,,,,,10,25,M,N,2023-01-05_10h34.15.872,Flanker,2022.2.4,None,
Przez najbliższe 5 minut proszę kolorować otrzymaną pustą kartkę. Naciśnij spację aby zacząć odmierzać czas,,>><>>,0,1,1,1,,,,,0,19,19,34,,,,,,,,,,,,,,,,,,,,,993.7532359439650,993.7532359439650,left,0,0.5247464230051260,,,,,,10,25,M,N,2023-01-05_10h34.15.872,Flanker,2022.2.4,None,
Przez najbliższe 5 minut proszę kolorować otrzymaną pustą kartkę. Naciśnij spację aby zacząć odmierzać czas,,>><>>,0,1,1,1,,,,,0,20,20,36,,,,,,,,,,,,,,,,,,,,,995.2824909929190,995.2824909929190,left,0,0.4853653298923750,,,,,,10,25,M,N,2023-01-05_10h34.15.872,Flanker,2022.2.4,None,
Przez najbliższe 5 minut proszę kolorować otrzymaną pustą kartkę. Naciśnij spację aby zacząć odmierzać czas,,--<--,0,1,1,1,,,,,0,21,21,44,,,,,,,,,,,,,,,,,,,,,996.7793190279040,996.7793190279040,left,0,0.49760486593004300,,,,,,10,25,M,N,2023-01-05_10h34.15.872,Flanker,2022.2.4,None,
Przez najbliższe 5 minut proszę kolorować otrzymaną pustą kartkę. Naciśnij spację aby zacząć odmierzać czas,,>>>>>,0,1,1,1,,,,,0,22,22,8,,,,,,,,,,,,,,,,,,,,,998.2758359659930,998.2758359659930,right,0,0.37502521905116700,,,,,,10,25,M,N,2023-01-05_10h34.15.872,Flanker,2022.2.4,None,
Przez najbliższe 5 minut proszę kolorować otrzymaną pustą kartkę. Naciśnij spację aby zacząć odmierzać czas,,<<><<,0,1,1,1,,,,,0,23,23,24,,,,,,,,,,,,,,,,,,,,,999.6631072559390,999.6631072559390,right,0,0.4226764279883360,,,,,,10,25,M,N,2023-01-05_10h34.15.872,Flanker,2022.2.4,None,
Przez najbliższe 5 minut proszę kolorować otrzymaną pustą kartkę. Naciśnij spację aby zacząć odmierzać czas,,<<<<<,0,1,1,1,,,,,0,24,24,16,,,,,,,,,,,,,,,,,,,,,1001.097724894990,1001.097724894990,left,0,0.357076114974916,,,,,,10,25,M,N,2023-01-05_10h34.15.872,Flanker,2022.2.4,None,
Przez najbliższe 5 minut proszę kolorować otrzymaną pustą kartkę. Naciśnij spację aby zacząć odmierzać czas,,>>>>>,0,1,1,1,,,,,0,25,25,9,,,,,,,,,,,,,,,,,,,,,1002.469858382950,1002.469858382950,right,0,0.3316953810863200,,,,,,10,25,M,N,2023-01-05_10h34.15.872,Flanker,2022.2.4,None,
Przez najbliższe 5 minut proszę kolorować otrzymaną pustą kartkę. Naciśnij spację aby zacząć odmierzać czas,,>><>>,0,1,1,1,,,,,0,26,26,35,,,,,,,,,,,,,,,,,,,,,1003.8094904159700,1003.8094904159700,left,0,0.47027748194523200,,,,,,10,25,M,N,2023-01-05_10h34.15.872,Flanker,2022.2.4,None,
Przez najbliższe 5 minut proszę kolorować otrzymaną pustą kartkę. Naciśnij spację aby zacząć odmierzać czas,,<<<<<,0,1,1,1,,,,,0,27,27,18,,,,,,,,,,,,,,,,,,,,,1005.2925146479400,1005.2925146479400,left,0,0.4160644559888170,,,,,,10,25,M,N,2023-01-05_10h34.15.872,Flanker,2022.2.4,None,
Przez najbliższe 5 minut proszę kolorować otrzymaną pustą kartkę. Naciśnij spację aby zacząć odmierzać czas,,<<><<,0,1,1,1,,,,,0,28,28,25,,,,,,,,,,,,,,,,,,,,,1006.7192404539100,1006.7192404539100,right,0,0.4043215529527520,,,,,,10,25,M,N,2023-01-05_10h34.15.872,Flanker,2022.2.4,None,
Przez najbliższe 5 minut proszę kolorować otrzymaną pustą kartkę. Naciśnij spację aby zacząć odmierzać czas,,<<><<,0,1,1,1,,,,,0,29,29,29,,,,,,,,,,,,,,,,,,,,,1008.1295256039600,1008.1295256039600,right,0,0.45797193492762700,,,,,,10,25,M,N,2023-01-05_10h34.15.872,Flanker,2022.2.4,None,
Przez najbliższe 5 minut proszę kolorować otrzymaną pustą kartkę. Naciśnij spację aby zacząć odmierzać czas,,-->--,0,1,1,1,,,,,0,30,30,54,,,,,,,,,,,,,,,,,,,,,1009.5992133849100,1009.5992133849100,right,0,0.3971901939949020,,,,,,10,25,M,N,2023-01-05_10h34.15.872,Flanker,2022.2.4,None,
Przez najbliższe 5 minut proszę kolorować otrzymaną pustą kartkę. Naciśnij spację aby zacząć odmierzać czas,,-->--,0,1,1,1,,,,,0,31,31,58,,,,,,,,,,,,,,,,,,,,,1011.0089397130100,1011.0089397130100,right,0,0.4614405119791630,,,,,,10,25,M,N,2023-01-05_10h34.15.872,Flanker,2022.2.4,None,
Przez najbliższe 5 minut proszę kolorować otrzymaną pustą kartkę. Naciśnij spację aby zacząć odmierzać czas,,-->--,0,1,1,1,,,,,0,32,32,52,,,,,,,,,,,,,,,,,,,,,1012.4816630169500,1012.4816630169500,right,0,0.38601150596514300,,,,,,10,25,M,N,2023-01-05_10h34.15.872,Flanker,2022.2.4,None,
Przez najbliższe 5 minut proszę kolorować otrzymaną pustą kartkę. Naciśnij spację aby zacząć odmierzać czas,,--<--,0,1,1,1,,,,,0,33,33,47,,,,,,,,,,,,,,,,,,,,,1013.8705931740100,1013.8705931740100,left,0,0.39982888801023400,,,,,,10,25,M,N,2023-01-05_10h34.15.872,Flanker,2022.2.4,None,
Przez najbliższe 5 minut proszę kolorować otrzymaną pustą kartkę. Naciśnij spację aby zacząć odmierzać czas,,--<--,0,1,1,1,,,,,0,34,34,45,,,,,,,,,,,,,,,,,,,,,1015.2825587029800,1015.2825587029800,left,0,0.4569001269992440,,,,,,10,25,M,N,2023-01-05_10h34.15.872,Flanker,2022.2.4,None,
Przez najbliższe 5 minut proszę kolorować otrzymaną pustą kartkę. Naciśnij spację aby zacząć odmierzać czas,,<<><<,0,1,1,1,,,,,0,35,35,28,,,,,,,,,,,,,,,,,,,,,1016.7362433869900,1016.7362433869900,right,0,0.46611766400747,,,,,,10,25,M,N,2023-01-05_10h34.15.872,Flanker,2022.2.4,None,
Przez najbliższe 5 minut proszę kolorować otrzymaną pustą kartkę. Naciśnij spację aby zacząć odmierzać czas,,<<<<<,0,1,1,1,,,,,0,36,36,19,,,,,,,,,,,,,,,,,,,,,1018.2197129079100,1018.2197129079100,left,0,0.38254242902621600,,,,,,10,25,M,N,2023-01-05_10h34.15.872,Flanker,2022.2.4,None,
Przez najbliższe 5 minut proszę kolorować otrzymaną pustą kartkę. Naciśnij spację aby zacząć odmierzać czas,,>><>>,0,1,1,1,,,,,0,37,37,32,,,,,,,,,,,,,,,,,,,,,1019.6033239360000,1019.6033239360000,right,0,0.3580808419501410,,,,,,10,25,M,N,2023-01-05_10h34.15.872,Flanker,2022.2.4,None,
Przez najbliższe 5 minut proszę kolorować otrzymaną pustą kartkę. Naciśnij spację aby zacząć odmierzać czas,,>><>>,0,1,1,1,,,,,0,38,38,31,,,,,,,,,,,,,,,,,,,,,1020.9654915999900,1020.9654915999900,left,0,0.46565564605407400,,,,,,10,25,M,N,2023-01-05_10h34.15.872,Flanker,2022.2.4,None,
Przez najbliższe 5 minut proszę kolorować otrzymaną pustą kartkę. Naciśnij spację aby zacząć odmierzać czas,,--<--,0,1,1,1,,,,,0,39,39,46,,,,,,,,,,,,,,,,,,,,,1022.4455609800100,1022.4455609800100,left,0,0.4057192930486050,,,,,,10,25,M,N,2023-01-05_10h34.15.872,Flanker,2022.2.4,None,
Przez najbliższe 5 minut proszę kolorować otrzymaną pustą kartkę. Naciśnij spację aby zacząć odmierzać czas,,<<<<<,0,1,1,1,,,,,0,40,40,17,,,,,,,,,,,,,,,,,,,,,1023.8704973029700,1023.8704973029700,left,0,0.4117209459654990,,,,,,10,25,M,N,2023-01-05_10h34.15.872,Flanker,2022.2.4,None,
Przez najbliższe 5 minut proszę kolorować otrzymaną pustą kartkę. Naciśnij spację aby zacząć odmierzać czas,,>>>>>,0,1,1,1,,,,,0,41,41,3,,,,,,,,,,,,,,,,,,,,,1025.287034687000,1025.287034687000,right,0,0.3421811480075120,,,,,,10,25,M,N,2023-01-05_10h34.15.872,Flanker,2022.2.4,None,
Przez najbliższe 5 minut proszę kolorować otrzymaną pustą kartkę. Naciśnij spację aby zacząć odmierzać czas,,<<<<<,0,1,1,1,,,,,0,42,42,14,,,,,,,,,,,,,,,,,,,,,1026.6455646849900,1026.6455646849900,left,0,0.5124864189419900,,,,,,10,25,M,N,2023-01-05_10h34.15.872,Flanker,2022.2.4,None,
Przez najbliższe 5 minut proszę kolorować otrzymaną pustą kartkę. Naciśnij spację aby zacząć odmierzać czas,,>>>>> ,0,1,1,1,,,,,0,43,43,5,,,,,,,,,,,,,,,,,,,,,1028.1693866460100,1028.1693866460100,right,0,0.43490935710724400,,,,,,10,25,M,N,2023-01-05_10h34.15.872,Flanker,2022.2.4,None,
Przez najbliższe 5 minut proszę kolorować otrzymaną pustą kartkę. Naciśnij spację aby zacząć odmierzać czas,,<<<<<,0,1,1,1,,,,,0,44,44,10,,,,,,,,,,,,,,,,,,,,,1029.6205853329700,1029.6205853329700,left,0,0.439400854986161,,,,,,10,25,M,N,2023-01-05_10h34.15.872,Flanker,2022.2.4,None,
Przez najbliższe 5 minut proszę kolorować otrzymaną pustą kartkę. Naciśnij spację aby zacząć odmierzać czas,,--<--,0,1,1,1,,,,,0,45,45,48,,,,,,,,,,,,,,,,,,,,,1031.0702427369500,1031.0702427369500,left,0,0.4308077150490140,,,,,,10,25,M,N,2023-01-05_10h34.15.872,Flanker,2022.2.4,None,
Przez najbliższe 5 minut proszę kolorować otrzymaną pustą kartkę. Naciśnij spację aby zacząć odmierzać czas,,<<><<,0,1,1,1,,,,,0,46,46,26,,,,,,,,,,,,,,,,,,,,,1032.5089222049600,1032.5089222049600,right,0,0.5230826359475030,,,,,,10,25,M,N,2023-01-05_10h34.15.872,Flanker,2022.2.4,None,
Przez najbliższe 5 minut proszę kolorować otrzymaną pustą kartkę. Naciśnij spację aby zacząć odmierzać czas,,-->--,0,1,1,1,,,,,0,47,47,55,,,,,,,,,,,,,,,,,,,,,1034.0358820089600,1034.0358820089600,right,0,0.35211442899890200,,,,,,10,25,M,N,2023-01-05_10h34.15.872,Flanker,2022.2.4,None,
Przez najbliższe 5 minut proszę kolorować otrzymaną pustą kartkę. Naciśnij spację aby zacząć odmierzać czas,,>>>>>,0,1,1,1,,,,,0,48,48,7,,,,,,,,,,,,,,,,,,,,,1035.395788781930,1035.395788781930,right,0,0.3671428069937970,,,,,,10,25,M,N,2023-01-05_10h34.15.872,Flanker,2022.2.4,None,
Przez najbliższe 5 minut proszę kolorować otrzymaną pustą kartkę. Naciśnij spację aby zacząć odmierzać czas,,-->--,0,1,1,1,,,,,0,49,49,51,,,,,,,,,,,,,,,,,,,,,1036.768997337900,1036.768997337900,right,0,0.32608851802069700,,,,,,10,25,M,N,2023-01-05_10h34.15.872,Flanker,2022.2.4,None,
Przez najbliższe 5 minut proszę kolorować otrzymaną pustą kartkę. Naciśnij spację aby zacząć odmierzać czas,,>><>>,0,1,1,1,,,,,0,50,50,30,,,,,,,,,,,,,,,,,,,,,1038.1025142289,1038.1025142289,left,0,0.47341147903353000,,,,,,10,25,M,N,2023-01-05_10h34.15.872,Flanker,2022.2.4,None,
Przez najbliższe 5 minut proszę kolorować otrzymaną pustą kartkę. Naciśnij spację aby zacząć odmierzać czas,,<<><<,0,1,1,1,,,,,0,51,51,20,,,,,,,,,,,,,,,,,,,,,1039.586663412980,1039.586663412980,right,0,0.565101693966426,,,,,,10,25,M,N,2023-01-05_10h34.15.872,Flanker,2022.2.4,None,
Przez najbliższe 5 minut proszę kolorować otrzymaną pustą kartkę. Naciśnij spację aby zacząć odmierzać czas,,>><>>,0,1,1,1,,,,,0,52,52,39,,,,,,,,,,,,,,,,,,,,,1041.1693878789700,1041.1693878789700,left,0,0.4243745559360830,,,,,,10,25,M,N,2023-01-05_10h34.15.872,Flanker,2022.2.4,None,
Przez najbliższe 5 minut proszę kolorować otrzymaną pustą kartkę. Naciśnij spację aby zacząć odmierzać czas,,>>>>>,0,1,1,1,,,,,0,53,53,0,,,,,,,,,,,,,,,,,,,,,1042.6125112589200,1042.6125112589200,right,0,0.4203137409640480,,,,,,10,25,M,N,2023-01-05_10h34.15.872,Flanker,2022.2.4,None,
Przez najbliższe 5 minut proszę kolorować otrzymaną pustą kartkę. Naciśnij spację aby zacząć odmierzać czas,,--<--,0,1,1,1,,,,,0,54,54,40,,,,,,,,,,,,,,,,,,,,,1044.0476186599100,1044.0476186599100,left,0,0.4242071470944210,,,,,,10,25,M,N,2023-01-05_10h34.15.872,Flanker,2022.2.4,None,
Przez najbliższe 5 minut proszę kolorować otrzymaną pustą kartkę. Naciśnij spację aby zacząć odmierzać czas,,>>>>>,0,1,1,1,,,,,0,55,55,6,,,,,,,,,,,,,,,,,,,,,1045.4921518139300,1045.4921518139300,right,0,0.3695752640487630,,,,,,10,25,M,N,2023-01-05_10h34.15.872,Flanker,2022.2.4,None,
Przez najbliższe 5 minut proszę kolorować otrzymaną pustą kartkę. Naciśnij spację aby zacząć odmierzać czas,,>><>>,0,1,1,1,,,,,0,56,56,38,,,,,,,,,,,,,,,,,,,,,1046.8749527829900,1046.8749527829900,left,0,0.5046083000488580,,,,,,10,25,M,N,2023-01-05_10h34.15.872,Flanker,2022.2.4,None,
Przez najbliższe 5 minut proszę kolorować otrzymaną pustą kartkę. Naciśnij spację aby zacząć odmierzać czas,,--<--,0,1,1,1,,,,,0,57,57,42,,,,,,,,,,,,,,,,,,,,,1048.3919780639700,1048.3919780639700,left,0,0.43867353396490200,,,,,,10,25,M,N,2023-01-05_10h34.15.872,Flanker,2022.2.4,None,
Przez najbliższe 5 minut proszę kolorować otrzymaną pustą kartkę. Naciśnij spację aby zacząć odmierzać czas,,<<><<,0,1,1,1,,,,,0,58,58,21,,,,,,,,,,,,,,,,,,,,,1049.8426114779400,1049.8426114779400,right,0,0.3469603129196910,,,,,,10,25,M,N,2023-01-05_10h34.15.872,Flanker,2022.2.4,None,
Przez najbliższe 5 minut proszę kolorować otrzymaną pustą kartkę. Naciśnij spację aby zacząć odmierzać czas,,<<><<,0,1,1,1,,,,,0,59,59,22,,,,,,,,,,,,,,,,,,,,,1051.2016002689500,1051.2016002689500,right,0,0.5100336319301280,,,,,,10,25,M,N,2023-01-05_10h34.15.872,Flanker,2022.2.4,None,
Przez najbliższe 5 minut proszę kolorować otrzymaną pustą kartkę. Naciśnij spację aby zacząć odmierzać czas,,,0,1,1,1,,,,,,,,,,,,,,,,,,,,,,,,,,,,,,,,,,,,,,,10,25,M,N,2023-01-05_10h34.15.872,Flanker,2022.2.4,None,
,,,,,,,,,,,,,,,,,,,,,,,,,,,,,,,,,,,,,,,,,1052.7149941159900,1052.7149941159900,space,1.8605394460028000,10,25,M,N,2023-01-05_10h34.15.872,Flanker,2022.2.4,None,