kolorowanka,Example,Stimuli,proby.thisRepN,proby.thisTrialN,proby.thisN,proby.thisIndex,zapoznanie.thisRepN,zapoznanie.thisTrialN,zapoznanie.thisN,zapoznanie.thisIndex,Warunki.thisRepN,Warunki.thisTrialN,Warunki.thisN,Warunki.thisIndex,Intro.started,Intro_resp.started,Intro_resp.keys,Intro_resp.rt,Kolorowanie1.started,starttt.started,starttt.keys,starttt.rt,koloruj.started,Instruction.started,key_resp.started,key_resp.keys,key_resp.rt,Wyjasnienie.started,text.started,odp_przyk.started,odp_przyk.keys,odp_przyk.corr,odp_przyk.rt,zapo.started,Zadanie.started,Odp.started,Odp.keys,Odp.corr,Odp.rt,zapo.stopped,thanks.started,KONIEC.started,KONIEC.keys,KONIEC.rt,participant,Wiek (w latach),Płeć (K/M),Entropia,date,expName,psychopyVersion,frameRate,
,,,,,,,,,,,,,,,30.739133808994666,32.72774290596135,space,16.946098240092397,,,,,,,,,,,,,,,,,,,,,,,,,,,11,20,K,N,2023-01-05_11h00.36.600,Flanker,2022.2.4,None,
Przez najbliższe 5 minut proszę kolorować otrzymaną pustą kartkę. Naciśnij spację aby zacząć odmierzać czas,--<--,,0,0,0,1,0,0,0,4,,,,,,,,,49.75316019996535,50.691320974961855,space,24.331707416917197,75.08405056793708,375.04814827791415,377.0312857920071,space,37.43615266203415,414.48363880696706,423.4732290339889,423.4732290339889,left,0,1.4872524139937013,,,,,,,,,,,,11,20,K,N,2023-01-05_11h00.36.600,Flanker,2022.2.4,None,
Przez najbliższe 5 minut proszę kolorować otrzymaną pustą kartkę. Naciśnij spację aby zacząć odmierzać czas,>>>>>,,0,0,0,1,0,1,1,1,,,,,,,,,,,,,,,,,,,425.9794460469857,425.9794460469857,right,0,0.8087926229927689,,,,,,,,,,,,11,20,K,N,2023-01-05_11h00.36.600,Flanker,2022.2.4,None,
Przez najbliższe 5 minut proszę kolorować otrzymaną pustą kartkę. Naciśnij spację aby zacząć odmierzać czas,>><>>,,0,0,0,1,0,2,2,3,,,,,,,,,,,,,,,,,,,427.7999609479448,427.7999609479448,left,0,1.1383398120524362,,,,,,,,,,,,11,20,K,N,2023-01-05_11h00.36.600,Flanker,2022.2.4,None,
Przez najbliższe 5 minut proszę kolorować otrzymaną pustą kartkę. Naciśnij spację aby zacząć odmierzać czas,<<><<,,0,0,0,1,0,3,3,2,,,,,,,,,,,,,,,,,,,429.9665575089166,429.9665575089166,right,0,0.6955588139826432,,,,,,,,,,,,11,20,K,N,2023-01-05_11h00.36.600,Flanker,2022.2.4,None,
Przez najbliższe 5 minut proszę kolorować otrzymaną pustą kartkę. Naciśnij spację aby zacząć odmierzać czas,-->--,,0,0,0,1,0,4,4,5,,,,,,,,,,,,,,,,,,,431.6732175309444,431.6732175309444,right,0,0.7969182659871876,,,,,,,,,,,,11,20,K,N,2023-01-05_11h00.36.600,Flanker,2022.2.4,None,
Przez najbliższe 5 minut proszę kolorować otrzymaną pustą kartkę. Naciśnij spację aby zacząć odmierzać czas,<<<<<,,0,0,0,1,0,5,5,0,,,,,,,,,,,,,,,,,,,433.49587945092935,433.49587945092935,left,0,0.7182704319711775,,,,,,,,,,,,11,20,K,N,2023-01-05_11h00.36.600,Flanker,2022.2.4,None,
Przez najbliższe 5 minut proszę kolorować otrzymaną pustą kartkę. Naciśnij spację aby zacząć odmierzać czas,,--<--,0,0,0,1,,,,,0,0,0,47,,,,,,,,,,,,,,,,,,,,435.23457237600815,443.2388879089849,443.2388879089849,left,0,0.7042140079429373,,,,,,11,20,K,N,2023-01-05_11h00.36.600,Flanker,2022.2.4,None,
Przez najbliższe 5 minut proszę kolorować otrzymaną pustą kartkę. Naciśnij spację aby zacząć odmierzać czas,,>><>>,0,0,0,1,,,,,0,1,1,35,,,,,,,,,,,,,,,,,,,,,444.9634784369264,444.9634784369264,left,0,0.9062740120571107,,,,,,11,20,K,N,2023-01-05_11h00.36.600,Flanker,2022.2.4,None,
Przez najbliższe 5 minut proszę kolorować otrzymaną pustą kartkę. Naciśnij spację aby zacząć odmierzać czas,,>><>>,0,0,0,1,,,,,0,2,2,36,,,,,,,,,,,,,,,,,,,,,446.8960534489015,446.8960534489015,left,0,0.7208201329922304,,,,,,11,20,K,N,2023-01-05_11h00.36.600,Flanker,2022.2.4,None,
Przez najbliższe 5 minut proszę kolorować otrzymaną pustą kartkę. Naciśnij spację aby zacząć odmierzać czas,,<<<<<,0,0,0,1,,,,,0,3,3,16,,,,,,,,,,,,,,,,,,,,,448.64165454392787,448.64165454392787,left,0,0.7818904659943655,,,,,,11,20,K,N,2023-01-05_11h00.36.600,Flanker,2022.2.4,None,
Przez najbliższe 5 minut proszę kolorować otrzymaną pustą kartkę. Naciśnij spację aby zacząć odmierzać czas,,--<--,0,0,0,1,,,,,0,4,4,40,,,,,,,,,,,,,,,,,,,,,450.45041796192527,450.45041796192527,left,0,0.509153095073998,,,,,,11,20,K,N,2023-01-05_11h00.36.600,Flanker,2022.2.4,None,
Przez najbliższe 5 minut proszę kolorować otrzymaną pustą kartkę. Naciśnij spację aby zacząć odmierzać czas,,<<><<,0,0,0,1,,,,,0,5,5,23,,,,,,,,,,,,,,,,,,,,,451.9791390859755,451.9791390859755,right,0,0.8525664190528914,,,,,,11,20,K,N,2023-01-05_11h00.36.600,Flanker,2022.2.4,None,
Przez najbliższe 5 minut proszę kolorować otrzymaną pustą kartkę. Naciśnij spację aby zacząć odmierzać czas,,<<<<<,0,0,0,1,,,,,0,6,6,18,,,,,,,,,,,,,,,,,,,,,453.8400340639055,453.8400340639055,left,0,0.5825798099394888,,,,,,11,20,K,N,2023-01-05_11h00.36.600,Flanker,2022.2.4,None,
Przez najbliższe 5 minut proszę kolorować otrzymaną pustą kartkę. Naciśnij spację aby zacząć odmierzać czas,,<<><<,0,0,0,1,,,,,0,7,7,22,,,,,,,,,,,,,,,,,,,,,455.43276923394296,455.43276923394296,right,0,0.6858189910417423,,,,,,11,20,K,N,2023-01-05_11h00.36.600,Flanker,2022.2.4,None,
Przez najbliższe 5 minut proszę kolorować otrzymaną pustą kartkę. Naciśnij spację aby zacząć odmierzać czas,,-->--,0,0,0,1,,,,,0,8,8,58,,,,,,,,,,,,,,,,,,,,,457.1478497479111,457.1478497479111,right,0,0.7265937420306727,,,,,,11,20,K,N,2023-01-05_11h00.36.600,Flanker,2022.2.4,None,
Przez najbliższe 5 minut proszę kolorować otrzymaną pustą kartkę. Naciśnij spację aby zacząć odmierzać czas,,--<--,0,0,0,1,,,,,0,9,9,46,,,,,,,,,,,,,,,,,,,,,458.88958563201595,458.88958563201595,left,0,0.6788458719383925,,,,,,11,20,K,N,2023-01-05_11h00.36.600,Flanker,2022.2.4,None,
Przez najbliższe 5 minut proszę kolorować otrzymaną pustą kartkę. Naciśnij spację aby zacząć odmierzać czas,,<<><<,0,0,0,1,,,,,0,10,10,20,,,,,,,,,,,,,,,,,,,,,460.57288873696234,460.57288873696234,right,0,0.5835723839700222,,,,,,11,20,K,N,2023-01-05_11h00.36.600,Flanker,2022.2.4,None,
Przez najbliższe 5 minut proszę kolorować otrzymaną pustą kartkę. Naciśnij spację aby zacząć odmierzać czas,,--<--,0,0,0,1,,,,,0,11,11,44,,,,,,,,,,,,,,,,,,,,,462.184258181951,462.184258181951,left,0,0.42016726708970964,,,,,,11,20,K,N,2023-01-05_11h00.36.600,Flanker,2022.2.4,None,
Przez najbliższe 5 minut proszę kolorować otrzymaną pustą kartkę. Naciśnij spację aby zacząć odmierzać czas,,>>>>>,0,0,0,1,,,,,0,12,12,1,,,,,,,,,,,,,,,,,,,,,463.6227538859239,463.6227538859239,right,0,0.530580642982386,,,,,,11,20,K,N,2023-01-05_11h00.36.600,Flanker,2022.2.4,None,
Przez najbliższe 5 minut proszę kolorować otrzymaną pustą kartkę. Naciśnij spację aby zacząć odmierzać czas,,>><>>,0,0,0,1,,,,,0,13,13,30,,,,,,,,,,,,,,,,,,,,,465.16800645994954,465.16800645994954,left,0,0.5762759790522978,,,,,,11,20,K,N,2023-01-05_11h00.36.600,Flanker,2022.2.4,None,
Przez najbliższe 5 minut proszę kolorować otrzymaną pustą kartkę. Naciśnij spację aby zacząć odmierzać czas,,>><>>,0,0,0,1,,,,,0,14,14,37,,,,,,,,,,,,,,,,,,,,,466.7659978439333,466.7659978439333,left,0,0.8633539030561224,,,,,,11,20,K,N,2023-01-05_11h00.36.600,Flanker,2022.2.4,None,
Przez najbliższe 5 minut proszę kolorować otrzymaną pustą kartkę. Naciśnij spację aby zacząć odmierzać czas,,>>>>>,0,0,0,1,,,,,0,15,15,9,,,,,,,,,,,,,,,,,,,,,468.64568326994777,468.64568326994777,right,0,0.5975284239975736,,,,,,11,20,K,N,2023-01-05_11h00.36.600,Flanker,2022.2.4,None,
Przez najbliższe 5 minut proszę kolorować otrzymaną pustą kartkę. Naciśnij spację aby zacząć odmierzać czas,,<<<<<,0,0,0,1,,,,,0,16,16,12,,,,,,,,,,,,,,,,,,,,,470.2638446990168,470.2638446990168,left,0,0.5844007870182395,,,,,,11,20,K,N,2023-01-05_11h00.36.600,Flanker,2022.2.4,None,
Przez najbliższe 5 minut proszę kolorować otrzymaną pustą kartkę. Naciśnij spację aby zacząć odmierzać czas,,>>>>>,0,0,0,1,,,,,0,17,17,7,,,,,,,,,,,,,,,,,,,,,471.86576359998435,471.86576359998435,right,0,0.5124665609328076,,,,,,11,20,K,N,2023-01-05_11h00.36.600,Flanker,2022.2.4,None,
Przez najbliższe 5 minut proszę kolorować otrzymaną pustą kartkę. Naciśnij spację aby zacząć odmierzać czas,,<<><<,0,0,0,1,,,,,0,18,18,26,,,,,,,,,,,,,,,,,,,,,473.3841112249065,473.3841112249065,right,0,1.0300242329249159,,,,,,11,20,K,N,2023-01-05_11h00.36.600,Flanker,2022.2.4,None,
Przez najbliższe 5 minut proszę kolorować otrzymaną pustą kartkę. Naciśnij spację aby zacząć odmierzać czas,,<<<<<,0,0,0,1,,,,,0,19,19,15,,,,,,,,,,,,,,,,,,,,,475.4400607489515,475.4400607489515,left,0,0.5719712870195508,,,,,,11,20,K,N,2023-01-05_11h00.36.600,Flanker,2022.2.4,None,
Przez najbliższe 5 minut proszę kolorować otrzymaną pustą kartkę. Naciśnij spację aby zacząć odmierzać czas,,<<<<<,0,0,0,1,,,,,0,20,20,19,,,,,,,,,,,,,,,,,,,,,477.0193337519886,477.0193337519886,left,0,0.564696133020334,,,,,,11,20,K,N,2023-01-05_11h00.36.600,Flanker,2022.2.4,None,
Przez najbliższe 5 minut proszę kolorować otrzymaną pustą kartkę. Naciśnij spację aby zacząć odmierzać czas,,-->--,0,0,0,1,,,,,0,21,21,53,,,,,,,,,,,,,,,,,,,,,478.595379613922,478.595379613922,right,0,0.6575681770918891,,,,,,11,20,K,N,2023-01-05_11h00.36.600,Flanker,2022.2.4,None,
Przez najbliższe 5 minut proszę kolorować otrzymaną pustą kartkę. Naciśnij spację aby zacząć odmierzać czas,,<<><<,0,0,0,1,,,,,0,22,22,27,,,,,,,,,,,,,,,,,,,,,480.2809463989688,480.2809463989688,right,0,0.751126560033299,,,,,,11,20,K,N,2023-01-05_11h00.36.600,Flanker,2022.2.4,None,
Przez najbliższe 5 minut proszę kolorować otrzymaną pustą kartkę. Naciśnij spację aby zacząć odmierzać czas,,>>>>> ,0,0,0,1,,,,,0,23,23,5,,,,,,,,,,,,,,,,,,,,,482.05060708196834,482.05060708196834,right,0,0.7523525309516117,,,,,,11,20,K,N,2023-01-05_11h00.36.600,Flanker,2022.2.4,None,
Przez najbliższe 5 minut proszę kolorować otrzymaną pustą kartkę. Naciśnij spację aby zacząć odmierzać czas,,>><>>,0,0,0,1,,,,,0,24,24,34,,,,,,,,,,,,,,,,,,,,,483.82106946001295,483.82106946001295,left,0,0.6638004780979827,,,,,,11,20,K,N,2023-01-05_11h00.36.600,Flanker,2022.2.4,None,
Przez najbliższe 5 minut proszę kolorować otrzymaną pustą kartkę. Naciśnij spację aby zacząć odmierzać czas,,-->--,0,0,0,1,,,,,0,25,25,51,,,,,,,,,,,,,,,,,,,,,485.49543253390584,485.49543253390584,right,0,0.4774786119814962,,,,,,11,20,K,N,2023-01-05_11h00.36.600,Flanker,2022.2.4,None,
Przez najbliższe 5 minut proszę kolorować otrzymaną pustą kartkę. Naciśnij spację aby zacząć odmierzać czas,,--<--,0,0,0,1,,,,,0,26,26,49,,,,,,,,,,,,,,,,,,,,,486.98262691590935,486.98262691590935,left,0,0.5373703819932416,,,,,,11,20,K,N,2023-01-05_11h00.36.600,Flanker,2022.2.4,None,
Przez najbliższe 5 minut proszę kolorować otrzymaną pustą kartkę. Naciśnij spację aby zacząć odmierzać czas,,-->--,0,0,0,1,,,,,0,27,27,55,,,,,,,,,,,,,,,,,,,,,488.532053094008,488.532053094008,right,0,0.6317400640109554,,,,,,11,20,K,N,2023-01-05_11h00.36.600,Flanker,2022.2.4,None,
Przez najbliższe 5 minut proszę kolorować otrzymaną pustą kartkę. Naciśnij spację aby zacząć odmierzać czas,,-->--,0,0,0,1,,,,,0,28,28,59,,,,,,,,,,,,,,,,,,,,,490.1786332119955,490.1786332119955,right,0,0.5011899899691343,,,,,,11,20,K,N,2023-01-05_11h00.36.600,Flanker,2022.2.4,None,
Przez najbliższe 5 minut proszę kolorować otrzymaną pustą kartkę. Naciśnij spację aby zacząć odmierzać czas,,<<><<,0,0,0,1,,,,,0,29,29,21,,,,,,,,,,,,,,,,,,,,,491.696848945925,491.696848945925,right,0,0.7359514840645716,,,,,,11,20,K,N,2023-01-05_11h00.36.600,Flanker,2022.2.4,None,
Przez najbliższe 5 minut proszę kolorować otrzymaną pustą kartkę. Naciśnij spację aby zacząć odmierzać czas,,-->--,0,0,0,1,,,,,0,30,30,52,,,,,,,,,,,,,,,,,,,,,493.4388853840064,493.4388853840064,right,0,0.466723699006252,,,,,,11,20,K,N,2023-01-05_11h00.36.600,Flanker,2022.2.4,None,
Przez najbliższe 5 minut proszę kolorować otrzymaną pustą kartkę. Naciśnij spację aby zacząć odmierzać czas,,-->--,0,0,0,1,,,,,0,31,31,57,,,,,,,,,,,,,,,,,,,,,494.9316361929523,494.9316361929523,right,0,0.4610305370297283,,,,,,11,20,K,N,2023-01-05_11h00.36.600,Flanker,2022.2.4,None,
Przez najbliższe 5 minut proszę kolorować otrzymaną pustą kartkę. Naciśnij spację aby zacząć odmierzać czas,,>><>>,0,0,0,1,,,,,0,32,32,33,,,,,,,,,,,,,,,,,,,,,496.3981616789242,496.3981616789242,left,0,0.7373898830264807,,,,,,11,20,K,N,2023-01-05_11h00.36.600,Flanker,2022.2.4,None,
Przez najbliższe 5 minut proszę kolorować otrzymaną pustą kartkę. Naciśnij spację aby zacząć odmierzać czas,,<<<<<,0,0,0,1,,,,,0,33,33,14,,,,,,,,,,,,,,,,,,,,,498.14523994992487,498.14523994992487,left,0,0.8853375510079786,,,,,,11,20,K,N,2023-01-05_11h00.36.600,Flanker,2022.2.4,None,
Przez najbliższe 5 minut proszę kolorować otrzymaną pustą kartkę. Naciśnij spację aby zacząć odmierzać czas,,--<--,0,0,0,1,,,,,0,34,34,42,,,,,,,,,,,,,,,,,,,,,500.0505377439549,500.0505377439549,left,0,0.6278595440089703,,,,,,11,20,K,N,2023-01-05_11h00.36.600,Flanker,2022.2.4,None,
Przez najbliższe 5 minut proszę kolorować otrzymaną pustą kartkę. Naciśnij spację aby zacząć odmierzać czas,,--<--,0,0,0,1,,,,,0,35,35,45,,,,,,,,,,,,,,,,,,,,,501.69910770701244,501.69910770701244,left,0,0.5234558549709618,,,,,,11,20,K,N,2023-01-05_11h00.36.600,Flanker,2022.2.4,None,
Przez najbliższe 5 minut proszę kolorować otrzymaną pustą kartkę. Naciśnij spację aby zacząć odmierzać czas,,-->--,0,0,0,1,,,,,0,36,36,50,,,,,,,,,,,,,,,,,,,,,503.2389750769362,503.2389750769362,right,0,0.5574711980298162,,,,,,11,20,K,N,2023-01-05_11h00.36.600,Flanker,2022.2.4,None,
Przez najbliższe 5 minut proszę kolorować otrzymaną pustą kartkę. Naciśnij spację aby zacząć odmierzać czas,,<<<<<,0,0,0,1,,,,,0,37,37,13,,,,,,,,,,,,,,,,,,,,,504.8117610029876,504.8117610029876,left,0,0.8047741149784997,,,,,,11,20,K,N,2023-01-05_11h00.36.600,Flanker,2022.2.4,None,
Przez najbliższe 5 minut proszę kolorować otrzymaną pustą kartkę. Naciśnij spację aby zacząć odmierzać czas,,<<><<,0,0,0,1,,,,,0,38,38,29,,,,,,,,,,,,,,,,,,,,,506.6387375280028,506.6387375280028,right,0,0.9156874789623544,,,,,,11,20,K,N,2023-01-05_11h00.36.600,Flanker,2022.2.4,None,
Przez najbliższe 5 minut proszę kolorować otrzymaną pustą kartkę. Naciśnij spację aby zacząć odmierzać czas,,--<--,0,0,0,1,,,,,0,39,39,43,,,,,,,,,,,,,,,,,,,,,508.57810200797394,508.57810200797394,left,0,0.8380921400384977,,,,,,11,20,K,N,2023-01-05_11h00.36.600,Flanker,2022.2.4,None,
Przez najbliższe 5 minut proszę kolorować otrzymaną pustą kartkę. Naciśnij spację aby zacząć odmierzać czas,,>>>>>,0,0,0,1,,,,,0,40,40,2,,,,,,,,,,,,,,,,,,,,,510.4388188999146,510.4388188999146,right,0,0.5784623340005055,,,,,,11,20,K,N,2023-01-05_11h00.36.600,Flanker,2022.2.4,None,
Przez najbliższe 5 minut proszę kolorować otrzymaną pustą kartkę. Naciśnij spację aby zacząć odmierzać czas,,<<><<,0,0,0,1,,,,,0,41,41,28,,,,,,,,,,,,,,,,,,,,,512.0226890069898,512.0226890069898,right,0,0.7384815010009333,,,,,,11,20,K,N,2023-01-05_11h00.36.600,Flanker,2022.2.4,None,
Przez najbliższe 5 minut proszę kolorować otrzymaną pustą kartkę. Naciśnij spację aby zacząć odmierzać czas,,>>>>>,0,0,0,1,,,,,0,42,42,6,,,,,,,,,,,,,,,,,,,,,513.7820737439906,513.7820737439906,right,0,0.4831216869642958,,,,,,11,20,K,N,2023-01-05_11h00.36.600,Flanker,2022.2.4,None,
Przez najbliższe 5 minut proszę kolorować otrzymaną pustą kartkę. Naciśnij spację aby zacząć odmierzać czas,,--<--,0,0,0,1,,,,,0,43,43,48,,,,,,,,,,,,,,,,,,,,,515.2819864929188,515.2819864929188,left,0,0.6373408020008355,,,,,,11,20,K,N,2023-01-05_11h00.36.600,Flanker,2022.2.4,None,
Przez najbliższe 5 minut proszę kolorować otrzymaną pustą kartkę. Naciśnij spację aby zacząć odmierzać czas,,>>>>>,0,0,0,1,,,,,0,44,44,3,,,,,,,,,,,,,,,,,,,,,516.9349507819861,516.9349507819861,right,0,0.45537835406139493,,,,,,11,20,K,N,2023-01-05_11h00.36.600,Flanker,2022.2.4,None,
Przez najbliższe 5 minut proszę kolorować otrzymaną pustą kartkę. Naciśnij spację aby zacząć odmierzać czas,,>>>>>,0,0,0,1,,,,,0,45,45,0,,,,,,,,,,,,,,,,,,,,,518.4049227009527,518.4049227009527,right,0,0.5062112079467624,,,,,,11,20,K,N,2023-01-05_11h00.36.600,Flanker,2022.2.4,None,
Przez najbliższe 5 minut proszę kolorować otrzymaną pustą kartkę. Naciśnij spację aby zacząć odmierzać czas,,<<><<,0,0,0,1,,,,,0,46,46,24,,,,,,,,,,,,,,,,,,,,,519.9281893689185,519.9281893689185,right,0,0.56097748700995,,,,,,11,20,K,N,2023-01-05_11h00.36.600,Flanker,2022.2.4,None,
Przez najbliższe 5 minut proszę kolorować otrzymaną pustą kartkę. Naciśnij spację aby zacząć odmierzać czas,,>><>>,0,0,0,1,,,,,0,47,47,39,,,,,,,,,,,,,,,,,,,,,521.511409675004,521.511409675004,left,0,0.6646682140417397,,,,,,11,20,K,N,2023-01-05_11h00.36.600,Flanker,2022.2.4,None,
Przez najbliższe 5 minut proszę kolorować otrzymaną pustą kartkę. Naciśnij spację aby zacząć odmierzać czas,,<<><<,0,0,0,1,,,,,0,48,48,25,,,,,,,,,,,,,,,,,,,,,523.1834699279862,523.1834699279862,right,0,0.5296104580629617,,,,,,11,20,K,N,2023-01-05_11h00.36.600,Flanker,2022.2.4,None,
Przez najbliższe 5 minut proszę kolorować otrzymaną pustą kartkę. Naciśnij spację aby zacząć odmierzać czas,,<<<<<,0,0,0,1,,,,,0,49,49,17,,,,,,,,,,,,,,,,,,,,,524.7342659289716,524.7342659289716,left,0,0.7416773879667744,,,,,,11,20,K,N,2023-01-05_11h00.36.600,Flanker,2022.2.4,None,
Przez najbliższe 5 minut proszę kolorować otrzymaną pustą kartkę. Naciśnij spację aby zacząć odmierzać czas,,<<<<<,0,0,0,1,,,,,0,50,50,11,,,,,,,,,,,,,,,,,,,,,526.4978303120006,526.4978303120006,left,0,0.562253664014861,,,,,,11,20,K,N,2023-01-05_11h00.36.600,Flanker,2022.2.4,None,
Przez najbliższe 5 minut proszę kolorować otrzymaną pustą kartkę. Naciśnij spację aby zacząć odmierzać czas,,<<<<<,0,0,0,1,,,,,0,51,51,10,,,,,,,,,,,,,,,,,,,,,528.071539197932,528.071539197932,left,0,0.4853530019754544,,,,,,11,20,K,N,2023-01-05_11h00.36.600,Flanker,2022.2.4,None,
Przez najbliższe 5 minut proszę kolorować otrzymaną pustą kartkę. Naciśnij spację aby zacząć odmierzać czas,,-->--,0,0,0,1,,,,,0,52,52,54,,,,,,,,,,,,,,,,,,,,,529.5713878229726,529.5713878229726,right,0,0.5125458959955722,,,,,,11,20,K,N,2023-01-05_11h00.36.600,Flanker,2022.2.4,None,
Przez najbliższe 5 minut proszę kolorować otrzymaną pustą kartkę. Naciśnij spację aby zacząć odmierzać czas,,>><>>,0,0,0,1,,,,,0,53,53,38,,,,,,,,,,,,,,,,,,,,,531.100473881932,531.100473881932,left,0,1.30638182698749,,,,,,11,20,K,N,2023-01-05_11h00.36.600,Flanker,2022.2.4,None,
Przez najbliższe 5 minut proszę kolorować otrzymaną pustą kartkę. Naciśnij spację aby zacząć odmierzać czas,,>>>>>,0,0,0,1,,,,,0,54,54,4,,,,,,,,,,,,,,,,,,,,,533.4217001069337,533.4217001069337,right,0,0.4680584530578926,,,,,,11,20,K,N,2023-01-05_11h00.36.600,Flanker,2022.2.4,None,
Przez najbliższe 5 minut proszę kolorować otrzymaną pustą kartkę. Naciśnij spację aby zacząć odmierzać czas,,>>>>>,0,0,0,1,,,,,0,55,55,8,,,,,,,,,,,,,,,,,,,,,534.9153969609179,534.9153969609179,right,0,0.7673498949734494,,,,,,11,20,K,N,2023-01-05_11h00.36.600,Flanker,2022.2.4,None,
Przez najbliższe 5 minut proszę kolorować otrzymaną pustą kartkę. Naciśnij spację aby zacząć odmierzać czas,,-->--,0,0,0,1,,,,,0,56,56,56,,,,,,,,,,,,,,,,,,,,,536.6981707869563,536.6981707869563,right,0,0.9636107349069789,,,,,,11,20,K,N,2023-01-05_11h00.36.600,Flanker,2022.2.4,None,
Przez najbliższe 5 minut proszę kolorować otrzymaną pustą kartkę. Naciśnij spację aby zacząć odmierzać czas,,>><>>,0,0,0,1,,,,,0,57,57,31,,,,,,,,,,,,,,,,,,,,,538.6779813799076,538.6779813799076,left,0,1.1827620971016586,,,,,,11,20,K,N,2023-01-05_11h00.36.600,Flanker,2022.2.4,None,
Przez najbliższe 5 minut proszę kolorować otrzymaną pustą kartkę. Naciśnij spację aby zacząć odmierzać czas,,>><>>,0,0,0,1,,,,,0,58,58,32,,,,,,,,,,,,,,,,,,,,,540.8780473449733,540.8780473449733,left,0,0.756636978010647,,,,,,11,20,K,N,2023-01-05_11h00.36.600,Flanker,2022.2.4,None,
Przez najbliższe 5 minut proszę kolorować otrzymaną pustą kartkę. Naciśnij spację aby zacząć odmierzać czas,,--<--,0,0,0,1,,,,,0,59,59,41,,,,,,,,,,,,,,,,,,,,,542.6548939259956,542.6548939259956,left,0,0.586748747038655,,,,,,11,20,K,N,2023-01-05_11h00.36.600,Flanker,2022.2.4,None,
Przez najbliższe 5 minut proszę kolorować otrzymaną pustą kartkę. Naciśnij spację aby zacząć odmierzać czas,,,0,0,0,1,,,,,,,,,,,,,,,,,,,,,,,,,,,,,,,,,,,,,,,11,20,K,N,2023-01-05_11h00.36.600,Flanker,2022.2.4,None,
Przez najbliższe 5 minut proszę kolorować otrzymaną kolorwankę z mandalą. Naciśnij spację aby zacząć odmierzać czas,>>>>>,,0,1,1,0,0,0,0,1,,,,,,,,,543.2861825230066,544.2596587869339,space,6.977332093985751,551.2655916899676,851.2694077679189,853.2590523639228,space,7.206751971039921,860.490064788959,869.483079580008,869.483079580008,right,0,1.3126421769848093,,,,,,,,,,,,11,20,K,N,2023-01-05_11h00.36.600,Flanker,2022.2.4,None,
Przez najbliższe 5 minut proszę kolorować otrzymaną kolorwankę z mandalą. Naciśnij spację aby zacząć odmierzać czas,--<--,,0,1,1,0,0,1,1,4,,,,,,,,,,,,,,,,,,,871.8102068009321,871.8102068009321,left,0,0.8102278609294444,,,,,,,,,,,,11,20,K,N,2023-01-05_11h00.36.600,Flanker,2022.2.4,None,
Przez najbliższe 5 minut proszę kolorować otrzymaną kolorwankę z mandalą. Naciśnij spację aby zacząć odmierzać czas,<<><<,,0,1,1,0,0,2,2,2,,,,,,,,,,,,,,,,,,,873.6354851399083,873.6354851399083,right,0,1.2027829369762912,,,,,,,,,,,,11,20,K,N,2023-01-05_11h00.36.600,Flanker,2022.2.4,None,
Przez najbliższe 5 minut proszę kolorować otrzymaną kolorwankę z mandalą. Naciśnij spację aby zacząć odmierzać czas,>><>>,,0,1,1,0,0,3,3,3,,,,,,,,,,,,,,,,,,,875.8583418669878,875.8583418669878,left,0,1.0090146599104628,,,,,,,,,,,,11,20,K,N,2023-01-05_11h00.36.600,Flanker,2022.2.4,None,
Przez najbliższe 5 minut proszę kolorować otrzymaną kolorwankę z mandalą. Naciśnij spację aby zacząć odmierzać czas,-->--,,0,1,1,0,0,4,4,5,,,,,,,,,,,,,,,,,,,877.8848497979343,877.8848497979343,right,0,0.8215144140413031,,,,,,,,,,,,11,20,K,N,2023-01-05_11h00.36.600,Flanker,2022.2.4,None,
Przez najbliższe 5 minut proszę kolorować otrzymaną kolorwankę z mandalą. Naciśnij spację aby zacząć odmierzać czas,<<<<<,,0,1,1,0,0,5,5,0,,,,,,,,,,,,,,,,,,,879.7138934649993,879.7138934649993,left,0,0.7623708751052618,,,,,,,,,,,,11,20,K,N,2023-01-05_11h00.36.600,Flanker,2022.2.4,None,
Przez najbliższe 5 minut proszę kolorować otrzymaną kolorwankę z mandalą. Naciśnij spację aby zacząć odmierzać czas,,>>>>>,0,1,1,0,,,,,0,0,0,6,,,,,,,,,,,,,,,,,,,,881.4847956249723,889.4843302739318,889.4843302739318,right,0,0.5728124459274113,888.5047999660019,,,,,11,20,K,N,2023-01-05_11h00.36.600,Flanker,2022.2.4,None,
Przez najbliższe 5 minut proszę kolorować otrzymaną kolorwankę z mandalą. Naciśnij spację aby zacząć odmierzać czas,,>><>>,0,1,1,0,,,,,0,1,1,37,,,,,,,,,,,,,,,,,,,,,891.0883781549055,891.0883781549055,left,0,0.7205260689370334,,,,,,11,20,K,N,2023-01-05_11h00.36.600,Flanker,2022.2.4,None,
Przez najbliższe 5 minut proszę kolorować otrzymaną kolorwankę z mandalą. Naciśnij spację aby zacząć odmierzać czas,,--<--,0,1,1,0,,,,,0,2,2,48,,,,,,,,,,,,,,,,,,,,,892.8228895280045,892.8228895280045,left,0,0.7009663080098107,,,,,,11,20,K,N,2023-01-05_11h00.36.600,Flanker,2022.2.4,None,
Przez najbliższe 5 minut proszę kolorować otrzymaną kolorwankę z mandalą. Naciśnij spację aby zacząć odmierzać czas,,<<><<,0,1,1,0,,,,,0,3,3,23,,,,,,,,,,,,,,,,,,,,,894.5334897899302,894.5334897899302,right,0,1.0532883829437196,,,,,,11,20,K,N,2023-01-05_11h00.36.600,Flanker,2022.2.4,None,
Przez najbliższe 5 minut proszę kolorować otrzymaną kolorwankę z mandalą. Naciśnij spację aby zacząć odmierzać czas,,--<--,0,1,1,0,,,,,0,4,4,44,,,,,,,,,,,,,,,,,,,,,896.601079090964,896.601079090964,left,0,0.7917346339672804,,,,,,11,20,K,N,2023-01-05_11h00.36.600,Flanker,2022.2.4,None,
Przez najbliższe 5 minut proszę kolorować otrzymaną kolorwankę z mandalą. Naciśnij spację aby zacząć odmierzać czas,,<<<<<,0,1,1,0,,,,,0,5,5,13,,,,,,,,,,,,,,,,,,,,,898.4077965399483,898.4077965399483,left,0,0.46898706699721515,,,,,,11,20,K,N,2023-01-05_11h00.36.600,Flanker,2022.2.4,None,
Przez najbliższe 5 minut proszę kolorować otrzymaną kolorwankę z mandalą. Naciśnij spację aby zacząć odmierzać czas,,>>>>> ,0,1,1,0,,,,,0,6,6,5,,,,,,,,,,,,,,,,,,,,,899.8836720279651,899.8836720279651,right,0,0.5890018939971924,,,,,,11,20,K,N,2023-01-05_11h00.36.600,Flanker,2022.2.4,None,
Przez najbliższe 5 minut proszę kolorować otrzymaną kolorwankę z mandalą. Naciśnij spację aby zacząć odmierzać czas,,>><>>,0,1,1,0,,,,,0,7,7,34,,,,,,,,,,,,,,,,,,,,,901.4834048119374,901.4834048119374,left,0,0.8072101559955627,,,,,,11,20,K,N,2023-01-05_11h00.36.600,Flanker,2022.2.4,None,
Przez najbliższe 5 minut proszę kolorować otrzymaną kolorwankę z mandalą. Naciśnij spację aby zacząć odmierzać czas,,-->--,0,1,1,0,,,,,0,8,8,57,,,,,,,,,,,,,,,,,,,,,903.3083846709924,903.3083846709924,right,0,0.6822653269628063,,,,,,11,20,K,N,2023-01-05_11h00.36.600,Flanker,2022.2.4,None,
Przez najbliższe 5 minut proszę kolorować otrzymaną kolorwankę z mandalą. Naciśnij spację aby zacząć odmierzać czas,,>><>>,0,1,1,0,,,,,0,9,9,35,,,,,,,,,,,,,,,,,,,,,905.0106184319593,905.0106184319593,left,0,0.7629328949842602,,,,,,11,20,K,N,2023-01-05_11h00.36.600,Flanker,2022.2.4,None,
Przez najbliższe 5 minut proszę kolorować otrzymaną kolorwankę z mandalą. Naciśnij spację aby zacząć odmierzać czas,,<<><<,0,1,1,0,,,,,0,10,10,22,,,,,,,,,,,,,,,,,,,,,906.7836908309255,906.7836908309255,right,0,0.5898986040847376,,,,,,11,20,K,N,2023-01-05_11h00.36.600,Flanker,2022.2.4,None,
Przez najbliższe 5 minut proszę kolorować otrzymaną kolorwankę z mandalą. Naciśnij spację aby zacząć odmierzać czas,,<<><<,0,1,1,0,,,,,0,11,11,24,,,,,,,,,,,,,,,,,,,,,908.3996608490124,908.3996608490124,right,0,0.7506889039650559,,,,,,11,20,K,N,2023-01-05_11h00.36.600,Flanker,2022.2.4,None,
Przez najbliższe 5 minut proszę kolorować otrzymaną kolorwankę z mandalą. Naciśnij spację aby zacząć odmierzać czas,,>><>>,0,1,1,0,,,,,0,12,12,33,,,,,,,,,,,,,,,,,,,,,910.1675690459087,910.1675690459087,left,0,0.6119062269572169,,,,,,11,20,K,N,2023-01-05_11h00.36.600,Flanker,2022.2.4,None,
Przez najbliższe 5 minut proszę kolorować otrzymaną kolorwankę z mandalą. Naciśnij spację aby zacząć odmierzać czas,,--<--,0,1,1,0,,,,,0,13,13,49,,,,,,,,,,,,,,,,,,,,,911.7955398849444,911.7955398849444,left,0,0.5109510360052809,,,,,,11,20,K,N,2023-01-05_11h00.36.600,Flanker,2022.2.4,None,
Przez najbliższe 5 minut proszę kolorować otrzymaną kolorwankę z mandalą. Naciśnij spację aby zacząć odmierzać czas,,<<<<<,0,1,1,0,,,,,0,14,14,16,,,,,,,,,,,,,,,,,,,,,913.3248998179333,913.3248998179333,left,0,0.7735114879906178,,,,,,11,20,K,N,2023-01-05_11h00.36.600,Flanker,2022.2.4,None,
Przez najbliższe 5 minut proszę kolorować otrzymaną kolorwankę z mandalą. Naciśnij spację aby zacząć odmierzać czas,,>><>>,0,1,1,0,,,,,0,15,15,39,,,,,,,,,,,,,,,,,,,,,915.1090646369848,915.1090646369848,left,0,0.7183499790262431,,,,,,11,20,K,N,2023-01-05_11h00.36.600,Flanker,2022.2.4,None,
Przez najbliższe 5 minut proszę kolorować otrzymaną kolorwankę z mandalą. Naciśnij spację aby zacząć odmierzać czas,,<<<<<,0,1,1,0,,,,,0,16,16,15,,,,,,,,,,,,,,,,,,,,,916.8466796469875,916.8466796469875,left,0,0.48659043794032186,,,,,,11,20,K,N,2023-01-05_11h00.36.600,Flanker,2022.2.4,None,
Przez najbliższe 5 minut proszę kolorować otrzymaną kolorwankę z mandalą. Naciśnij spację aby zacząć odmierzać czas,,<<<<<,0,1,1,0,,,,,0,17,17,19,,,,,,,,,,,,,,,,,,,,,918.3466049130075,918.3466049130075,left,0,0.44273933698423207,,,,,,11,20,K,N,2023-01-05_11h00.36.600,Flanker,2022.2.4,None,
Przez najbliższe 5 minut proszę kolorować otrzymaną kolorwankę z mandalą. Naciśnij spację aby zacząć odmierzać czas,,>><>>,0,1,1,0,,,,,0,18,18,31,,,,,,,,,,,,,,,,,,,,,919.8004707399523,919.8004707399523,left,0,0.68057846208103,,,,,,11,20,K,N,2023-01-05_11h00.36.600,Flanker,2022.2.4,None,
Przez najbliższe 5 minut proszę kolorować otrzymaną kolorwankę z mandalą. Naciśnij spację aby zacząć odmierzać czas,,>>>>>,0,1,1,0,,,,,0,19,19,9,,,,,,,,,,,,,,,,,,,,,921.5130382910138,921.5130382910138,right,0,0.6360290969023481,,,,,,11,20,K,N,2023-01-05_11h00.36.600,Flanker,2022.2.4,None,
Przez najbliższe 5 minut proszę kolorować otrzymaną kolorwankę z mandalą. Naciśnij spację aby zacząć odmierzać czas,,>><>>,0,1,1,0,,,,,0,20,20,32,,,,,,,,,,,,,,,,,,,,,923.1685050450033,923.1685050450033,left,0,0.6914199170423672,,,,,,11,20,K,N,2023-01-05_11h00.36.600,Flanker,2022.2.4,None,
Przez najbliższe 5 minut proszę kolorować otrzymaną kolorwankę z mandalą. Naciśnij spację aby zacząć odmierzać czas,,>>>>>,0,1,1,0,,,,,0,21,21,4,,,,,,,,,,,,,,,,,,,,,924.8780612079427,924.8780612079427,right,0,0.7421279099071398,,,,,,11,20,K,N,2023-01-05_11h00.36.600,Flanker,2022.2.4,None,
Przez najbliższe 5 minut proszę kolorować otrzymaną kolorwankę z mandalą. Naciśnij spację aby zacząć odmierzać czas,,-->--,0,1,1,0,,,,,0,22,22,50,,,,,,,,,,,,,,,,,,,,,926.6231606729561,926.6231606729561,right,0,0.7780449030688033,,,,,,11,20,K,N,2023-01-05_11h00.36.600,Flanker,2022.2.4,None,
Przez najbliższe 5 minut proszę kolorować otrzymaną kolorwankę z mandalą. Naciśnij spację aby zacząć odmierzać czas,,<<<<<,0,1,1,0,,,,,0,23,23,17,,,,,,,,,,,,,,,,,,,,,928.4332235379843,928.4332235379843,left,0,0.6438816380687058,,,,,,11,20,K,N,2023-01-05_11h00.36.600,Flanker,2022.2.4,None,
Przez najbliższe 5 minut proszę kolorować otrzymaną kolorwankę z mandalą. Naciśnij spację aby zacząć odmierzać czas,,-->--,0,1,1,0,,,,,0,24,24,51,,,,,,,,,,,,,,,,,,,,,930.0923862559721,930.0923862559721,right,0,0.6087535460246727,,,,,,11,20,K,N,2023-01-05_11h00.36.600,Flanker,2022.2.4,None,
Przez najbliższe 5 minut proszę kolorować otrzymaną kolorwankę z mandalą. Naciśnij spację aby zacząć odmierzać czas,,>>>>>,0,1,1,0,,,,,0,25,25,0,,,,,,,,,,,,,,,,,,,,,931.716309661977,931.716309661977,right,0,0.6946789869107306,,,,,,11,20,K,N,2023-01-05_11h00.36.600,Flanker,2022.2.4,None,
Przez najbliższe 5 minut proszę kolorować otrzymaną kolorwankę z mandalą. Naciśnij spację aby zacząć odmierzać czas,,-->--,0,1,1,0,,,,,0,26,26,56,,,,,,,,,,,,,,,,,,,,,933.4278171689948,933.4278171689948,right,0,0.5989398199599236,,,,,,11,20,K,N,2023-01-05_11h00.36.600,Flanker,2022.2.4,None,
Przez najbliższe 5 minut proszę kolorować otrzymaną kolorwankę z mandalą. Naciśnij spację aby zacząć odmierzać czas,,-->--,0,1,1,0,,,,,0,27,27,59,,,,,,,,,,,,,,,,,,,,,935.0432325229049,935.0432325229049,right,0,0.5266187109518796,,,,,,11,20,K,N,2023-01-05_11h00.36.600,Flanker,2022.2.4,None,
Przez najbliższe 5 minut proszę kolorować otrzymaną kolorwankę z mandalą. Naciśnij spację aby zacząć odmierzać czas,,<<><<,0,1,1,0,,,,,0,28,28,26,,,,,,,,,,,,,,,,,,,,,936.5793861619895,936.5793861619895,right,0,1.2224072739481926,,,,,,11,20,K,N,2023-01-05_11h00.36.600,Flanker,2022.2.4,None,
Przez najbliższe 5 minut proszę kolorować otrzymaną kolorwankę z mandalą. Naciśnij spację aby zacząć odmierzać czas,,>><>>,0,1,1,0,,,,,0,29,29,38,,,,,,,,,,,,,,,,,,,,,938.8120767889777,938.8120767889777,left,0,0.7576504320604727,,,,,,11,20,K,N,2023-01-05_11h00.36.600,Flanker,2022.2.4,None,
Przez najbliższe 5 minut proszę kolorować otrzymaną kolorwankę z mandalą. Naciśnij spację aby zacząć odmierzać czas,,-->--,0,1,1,0,,,,,0,30,30,58,,,,,,,,,,,,,,,,,,,,,940.590876044007,940.590876044007,right,0,0.6317676029866561,,,,,,11,20,K,N,2023-01-05_11h00.36.600,Flanker,2022.2.4,None,
Przez najbliższe 5 minut proszę kolorować otrzymaną kolorwankę z mandalą. Naciśnij spację aby zacząć odmierzać czas,,<<<<<,0,1,1,0,,,,,0,31,31,12,,,,,,,,,,,,,,,,,,,,,942.2435846539447,942.2435846539447,left,0,0.5192402889952064,,,,,,11,20,K,N,2023-01-05_11h00.36.600,Flanker,2022.2.4,None,
Przez najbliższe 5 minut proszę kolorować otrzymaną kolorwankę z mandalą. Naciśnij spację aby zacząć odmierzać czas,,-->--,0,1,1,0,,,,,0,32,32,53,,,,,,,,,,,,,,,,,,,,,943.7726745239925,943.7726745239925,right,0,0.6009754210244864,,,,,,11,20,K,N,2023-01-05_11h00.36.600,Flanker,2022.2.4,None,
Przez najbliższe 5 minut proszę kolorować otrzymaną kolorwankę z mandalą. Naciśnij spację aby zacząć odmierzać czas,,<<><<,0,1,1,0,,,,,0,33,33,28,,,,,,,,,,,,,,,,,,,,,945.3790066199144,945.3790066199144,right,0,1.1276309550739825,,,,,,11,20,K,N,2023-01-05_11h00.36.600,Flanker,2022.2.4,None,
Przez najbliższe 5 minut proszę kolorować otrzymaną kolorwankę z mandalą. Naciśnij spację aby zacząć odmierzać czas,,>>>>>,0,1,1,0,,,,,0,34,34,7,,,,,,,,,,,,,,,,,,,,,947.5126557130134,947.5126557130134,right,0,0.6619231730001047,,,,,,11,20,K,N,2023-01-05_11h00.36.600,Flanker,2022.2.4,None,
Przez najbliższe 5 minut proszę kolorować otrzymaną kolorwankę z mandalą. Naciśnij spację aby zacząć odmierzać czas,,-->--,0,1,1,0,,,,,0,35,35,54,,,,,,,,,,,,,,,,,,,,,949.182778009912,949.182778009912,right,0,0.5358037550467998,,,,,,11,20,K,N,2023-01-05_11h00.36.600,Flanker,2022.2.4,None,
Przez najbliższe 5 minut proszę kolorować otrzymaną kolorwankę z mandalą. Naciśnij spację aby zacząć odmierzać czas,,<<<<<,0,1,1,0,,,,,0,36,36,14,,,,,,,,,,,,,,,,,,,,,950.7344681189861,950.7344681189861,left,0,0.5779492389410734,,,,,,11,20,K,N,2023-01-05_11h00.36.600,Flanker,2022.2.4,None,
Przez najbliższe 5 minut proszę kolorować otrzymaną kolorwankę z mandalą. Naciśnij spację aby zacząć odmierzać czas,,<<<<<,0,1,1,0,,,,,0,37,37,11,,,,,,,,,,,,,,,,,,,,,952.3241237229668,952.3241237229668,left,0,0.5834374719997868,,,,,,11,20,K,N,2023-01-05_11h00.36.600,Flanker,2022.2.4,None,
Przez najbliższe 5 minut proszę kolorować otrzymaną kolorwankę z mandalą. Naciśnij spację aby zacząć odmierzać czas,,--<--,0,1,1,0,,,,,0,38,38,47,,,,,,,,,,,,,,,,,,,,,953.9264446640154,953.9264446640154,left,0,0.7230136590078473,,,,,,11,20,K,N,2023-01-05_11h00.36.600,Flanker,2022.2.4,None,
Przez najbliższe 5 minut proszę kolorować otrzymaną kolorwankę z mandalą. Naciśnij spację aby zacząć odmierzać czas,,<<><<,0,1,1,0,,,,,0,39,39,29,,,,,,,,,,,,,,,,,,,,,955.675984818954,955.675984818954,right,0,0.5794693710049614,,,,,,11,20,K,N,2023-01-05_11h00.36.600,Flanker,2022.2.4,None,
Przez najbliższe 5 minut proszę kolorować otrzymaną kolorwankę z mandalą. Naciśnij spację aby zacząć odmierzać czas,,--<--,0,1,1,0,,,,,0,40,40,46,,,,,,,,,,,,,,,,,,,,,957.2615023970138,957.2615023970138,left,0,0.5778828830225393,,,,,,11,20,K,N,2023-01-05_11h00.36.600,Flanker,2022.2.4,None,
Przez najbliższe 5 minut proszę kolorować otrzymaną kolorwankę z mandalą. Naciśnij spację aby zacząć odmierzać czas,,>><>>,0,1,1,0,,,,,0,41,41,30,,,,,,,,,,,,,,,,,,,,,958.8557402309962,958.8557402309962,left,0,0.6646307050250471,,,,,,11,20,K,N,2023-01-05_11h00.36.600,Flanker,2022.2.4,None,
Przez najbliższe 5 minut proszę kolorować otrzymaną kolorwankę z mandalą. Naciśnij spację aby zacząć odmierzać czas,,<<><<,0,1,1,0,,,,,0,42,42,25,,,,,,,,,,,,,,,,,,,,,960.5276314809453,960.5276314809453,right,0,0.7865545749664307,,,,,,11,20,K,N,2023-01-05_11h00.36.600,Flanker,2022.2.4,None,
Przez najbliższe 5 minut proszę kolorować otrzymaną kolorwankę z mandalą. Naciśnij spację aby zacząć odmierzać czas,,>>>>>,0,1,1,0,,,,,0,43,43,3,,,,,,,,,,,,,,,,,,,,,962.3175980189117,962.3175980189117,right,0,0.6225734370527789,,,,,,11,20,K,N,2023-01-05_11h00.36.600,Flanker,2022.2.4,None,
Przez najbliższe 5 minut proszę kolorować otrzymaną kolorwankę z mandalą. Naciśnij spację aby zacząć odmierzać czas,,--<--,0,1,1,0,,,,,0,44,44,41,,,,,,,,,,,,,,,,,,,,,963.9595681439387,963.9595681439387,left,0,0.5086873889667913,,,,,,11,20,K,N,2023-01-05_11h00.36.600,Flanker,2022.2.4,None,
Przez najbliższe 5 minut proszę kolorować otrzymaną kolorwankę z mandalą. Naciśnij spację aby zacząć odmierzać czas,,--<--,0,1,1,0,,,,,0,45,45,42,,,,,,,,,,,,,,,,,,,,,965.4791922079166,965.4791922079166,left,0,0.5210188420023769,,,,,,11,20,K,N,2023-01-05_11h00.36.600,Flanker,2022.2.4,None,
Przez najbliższe 5 minut proszę kolorować otrzymaną kolorwankę z mandalą. Naciśnij spację aby zacząć odmierzać czas,,-->--,0,1,1,0,,,,,0,46,46,55,,,,,,,,,,,,,,,,,,,,,967.0228780489415,967.0228780489415,right,0,0.6153169670142233,,,,,,11,20,K,N,2023-01-05_11h00.36.600,Flanker,2022.2.4,None,
Przez najbliższe 5 minut proszę kolorować otrzymaną kolorwankę z mandalą. Naciśnij spację aby zacząć odmierzać czas,,>>>>>,0,1,1,0,,,,,0,47,47,1,,,,,,,,,,,,,,,,,,,,,968.6444128769217,968.6444128769217,right,0,0.6846552529605106,,,,,,11,20,K,N,2023-01-05_11h00.36.600,Flanker,2022.2.4,None,
Przez najbliższe 5 minut proszę kolorować otrzymaną kolorwankę z mandalą. Naciśnij spację aby zacząć odmierzać czas,,<<<<<,0,1,1,0,,,,,0,48,48,18,,,,,,,,,,,,,,,,,,,,,970.3494491199963,970.3494491199963,left,0,0.6205333389807492,,,,,,11,20,K,N,2023-01-05_11h00.36.600,Flanker,2022.2.4,None,
Przez najbliższe 5 minut proszę kolorować otrzymaną kolorwankę z mandalą. Naciśnij spację aby zacząć odmierzać czas,,<<><<,0,1,1,0,,,,,0,49,49,21,,,,,,,,,,,,,,,,,,,,,971.9826057839673,971.9826057839673,right,0,0.7484675690066069,,,,,,11,20,K,N,2023-01-05_11h00.36.600,Flanker,2022.2.4,None,
Przez najbliższe 5 minut proszę kolorować otrzymaną kolorwankę z mandalą. Naciśnij spację aby zacząć odmierzać czas,,<<><<,0,1,1,0,,,,,0,50,50,20,,,,,,,,,,,,,,,,,,,,,973.7556620209944,973.7556620209944,right,0,0.7833499549888074,,,,,,11,20,K,N,2023-01-05_11h00.36.600,Flanker,2022.2.4,None,
Przez najbliższe 5 minut proszę kolorować otrzymaną kolorwankę z mandalą. Naciśnij spację aby zacząć odmierzać czas,,--<--,0,1,1,0,,,,,0,51,51,43,,,,,,,,,,,,,,,,,,,,,975.5584762489889,975.5584762489889,left,0,0.6024976170156151,,,,,,11,20,K,N,2023-01-05_11h00.36.600,Flanker,2022.2.4,None,
Przez najbliższe 5 minut proszę kolorować otrzymaną kolorwankę z mandalą. Naciśnij spację aby zacząć odmierzać czas,,<<><<,0,1,1,0,,,,,0,52,52,27,,,,,,,,,,,,,,,,,,,,,977.1721038540127,977.1721038540127,right,0,0.8248248230665922,,,,,,11,20,K,N,2023-01-05_11h00.36.600,Flanker,2022.2.4,None,
Przez najbliższe 5 minut proszę kolorować otrzymaną kolorwankę z mandalą. Naciśnij spację aby zacząć odmierzać czas,,--<--,0,1,1,0,,,,,0,53,53,40,,,,,,,,,,,,,,,,,,,,,979.0051527069882,979.0051527069882,left,0,0.47860275104176253,,,,,,11,20,K,N,2023-01-05_11h00.36.600,Flanker,2022.2.4,None,
Przez najbliższe 5 minut proszę kolorować otrzymaną kolorwankę z mandalą. Naciśnij spację aby zacząć odmierzać czas,,<<<<<,0,1,1,0,,,,,0,54,54,10,,,,,,,,,,,,,,,,,,,,,980.5087840759661,980.5087840759661,left,0,0.5160829960368574,,,,,,11,20,K,N,2023-01-05_11h00.36.600,Flanker,2022.2.4,None,
Przez najbliższe 5 minut proszę kolorować otrzymaną kolorwankę z mandalą. Naciśnij spację aby zacząć odmierzać czas,,>>>>>,0,1,1,0,,,,,0,55,55,8,,,,,,,,,,,,,,,,,,,,,982.042277844972,982.042277844972,right,0,0.758492287946865,,,,,,11,20,K,N,2023-01-05_11h00.36.600,Flanker,2022.2.4,None,
Przez najbliższe 5 minut proszę kolorować otrzymaną kolorwankę z mandalą. Naciśnij spację aby zacząć odmierzać czas,,>>>>>,0,1,1,0,,,,,0,56,56,2,,,,,,,,,,,,,,,,,,,,,983.8154410719872,983.8154410719872,right,0,0.7393220779486,,,,,,11,20,K,N,2023-01-05_11h00.36.600,Flanker,2022.2.4,None,
Przez najbliższe 5 minut proszę kolorować otrzymaną kolorwankę z mandalą. Naciśnij spację aby zacząć odmierzać czas,,>><>>,0,1,1,0,,,,,0,57,57,36,,,,,,,,,,,,,,,,,,,,,985.5659972459543,985.5659972459543,left,0,0.5627768699778244,,,,,,11,20,K,N,2023-01-05_11h00.36.600,Flanker,2022.2.4,None,
Przez najbliższe 5 minut proszę kolorować otrzymaną kolorwankę z mandalą. Naciśnij spację aby zacząć odmierzać czas,,--<--,0,1,1,0,,,,,0,58,58,45,,,,,,,,,,,,,,,,,,,,,987.1490492649609,987.1490492649609,left,0,0.5015261920634657,,,,,,11,20,K,N,2023-01-05_11h00.36.600,Flanker,2022.2.4,None,
Przez najbliższe 5 minut proszę kolorować otrzymaną kolorwankę z mandalą. Naciśnij spację aby zacząć odmierzać czas,,-->--,0,1,1,0,,,,,0,59,59,52,,,,,,,,,,,,,,,,,,,,,988.6601924459683,988.6601924459683,right,0,0.6813922789879143,,,,,,11,20,K,N,2023-01-05_11h00.36.600,Flanker,2022.2.4,None,
Przez najbliższe 5 minut proszę kolorować otrzymaną kolorwankę z mandalą. Naciśnij spację aby zacząć odmierzać czas,,,0,1,1,0,,,,,,,,,,,,,,,,,,,,,,,,,,,,,,,,,,,,,,,11,20,K,N,2023-01-05_11h00.36.600,Flanker,2022.2.4,None,
,,,,,,,,,,,,,,,,,,,,,,,,,,,,,,,,,,,,,,,,,990.3614858059445,990.3614858059445,space,1.7221593100111932,11,20,K,N,2023-01-05_11h00.36.600,Flanker,2022.2.4,None,
