kolorowanka,Example,Stimuli,proby.thisRepN,proby.thisTrialN,proby.thisN,proby.thisIndex,zapoznanie.thisRepN,zapoznanie.thisTrialN,zapoznanie.thisN,zapoznanie.thisIndex,Warunki.thisRepN,Warunki.thisTrialN,Warunki.thisN,Warunki.thisIndex,Intro.started,Intro_resp.started,Intro_resp.keys,Intro_resp.rt,Kolorowanie1.started,starttt.started,starttt.keys,starttt.rt,koloruj.started,Instruction.started,key_resp.started,key_resp.keys,key_resp.rt,Wyjasnienie.started,text.started,odp_przyk.started,odp_przyk.keys,odp_przyk.corr,odp_przyk.rt,zapo.started,Zadanie.started,Odp.started,Odp.keys,Odp.corr,Odp.rt,zapo.stopped,thanks.started,KONIEC.started,KONIEC.keys,KONIEC.rt,participant,Wiek (w latach),Płeć (K/M),Entropia,date,expName,psychopyVersion,frameRate,
,,,,,,,,,,,,,,,32.430591471958900,34.41272401495370,space,13.512776289950100,,,,,,,,,,,,,,,,,,,,,,,,,,,12,20,K,N,2023-01-05_11h18.04.044,Flanker,2022.2.4,None,
Przez najbliższe 5 minut proszę kolorować otrzymaną pustą kartkę. Naciśnij spację aby zacząć odmierzać czas,>><>>,,0,0,0,1,0,0,0,3,,,,,,,,,47.98970229795670,48.955838850932200,space,7.5240072859451200,56.49580720090310,356.4949290679070,358.4858412069730,space,24.659107096027600,383.15988394094200,392.1450507659470,392.1450507659470,left,0,2.66170850105118,,,,,,,,,,,,12,20,K,N,2023-01-05_11h18.04.044,Flanker,2022.2.4,None,
Przez najbliższe 5 minut proszę kolorować otrzymaną pustą kartkę. Naciśnij spację aby zacząć odmierzać czas,<<><<,,0,0,0,1,0,1,1,2,,,,,,,,,,,,,,,,,,,395.8227062759690,395.8227062759690,left,0,3.868090652045790,,,,,,,,,,,,12,20,K,N,2023-01-05_11h18.04.044,Flanker,2022.2.4,None,
Przez najbliższe 5 minut proszę kolorować otrzymaną pustą kartkę. Naciśnij spację aby zacząć odmierzać czas,<<<<<,,0,0,0,1,0,2,2,0,,,,,,,,,,,,,,,,,,,400.7031823019500,400.7031823019500,right,0,1.5056566830026000,,,,,,,,,,,,12,20,K,N,2023-01-05_11h18.04.044,Flanker,2022.2.4,None,
Przez najbliższe 5 minut proszę kolorować otrzymaną pustą kartkę. Naciśnij spację aby zacząć odmierzać czas,--<--,,0,0,0,1,0,3,3,4,,,,,,,,,,,,,,,,,,,403.21816213801500,403.21816213801500,right,0,2.212458864902150,,,,,,,,,,,,12,20,K,N,2023-01-05_11h18.04.044,Flanker,2022.2.4,None,
Przez najbliższe 5 minut proszę kolorować otrzymaną pustą kartkę. Naciśnij spację aby zacząć odmierzać czas,>>>>>,,0,0,0,1,0,4,4,1,,,,,,,,,,,,,,,,,,,406.4514188489410,406.4514188489410,right,0,1.1022422399837500,,,,,,,,,,,,12,20,K,N,2023-01-05_11h18.04.044,Flanker,2022.2.4,None,
Przez najbliższe 5 minut proszę kolorować otrzymaną pustą kartkę. Naciśnij spację aby zacząć odmierzać czas,-->--,,0,0,0,1,0,5,5,5,,,,,,,,,,,,,,,,,,,408.5590246539800,408.5590246539800,right,0,0.8346182279055940,,,,,,,,,,,,12,20,K,N,2023-01-05_11h18.04.044,Flanker,2022.2.4,None,
Przez najbliższe 5 minut proszę kolorować otrzymaną pustą kartkę. Naciśnij spację aby zacząć odmierzać czas,,<<><<,0,0,0,1,,,,,0,0,0,22,,,,,,,,,,,,,,,,,,,,410.4041161169300,418.39422101399400,418.39422101399400,right,0,2.752682431950230,417.4220377879680,,,,,12,20,K,N,2023-01-05_11h18.04.044,Flanker,2022.2.4,None,
Przez najbliższe 5 minut proszę kolorować otrzymaną pustą kartkę. Naciśnij spację aby zacząć odmierzać czas,,>><>>,0,0,0,1,,,,,0,1,1,36,,,,,,,,,,,,,,,,,,,,,422.1660852349600,422.1660852349600,left,0,1.489848671015350,,,,,,12,20,K,N,2023-01-05_11h18.04.044,Flanker,2022.2.4,None,
Przez najbliższe 5 minut proszę kolorować otrzymaną pustą kartkę. Naciśnij spację aby zacząć odmierzać czas,,--<--,0,0,0,1,,,,,0,2,2,48,,,,,,,,,,,,,,,,,,,,,424.67507188394700,424.67507188394700,left,0,1.1448577690171100,,,,,,12,20,K,N,2023-01-05_11h18.04.044,Flanker,2022.2.4,None,
Przez najbliższe 5 minut proszę kolorować otrzymaną pustą kartkę. Naciśnij spację aby zacząć odmierzać czas,,--<--,0,0,0,1,,,,,0,3,3,49,,,,,,,,,,,,,,,,,,,,,426.83607917290600,426.83607917290600,left,0,0.710817612009123,,,,,,12,20,K,N,2023-01-05_11h18.04.044,Flanker,2022.2.4,None,
Przez najbliższe 5 minut proszę kolorować otrzymaną pustą kartkę. Naciśnij spację aby zacząć odmierzać czas,,>><>>,0,0,0,1,,,,,0,4,4,32,,,,,,,,,,,,,,,,,,,,,428.5546138419300,428.5546138419300,left,0,1.2760777339572100,,,,,,12,20,K,N,2023-01-05_11h18.04.044,Flanker,2022.2.4,None,
Przez najbliższe 5 minut proszę kolorować otrzymaną pustą kartkę. Naciśnij spację aby zacząć odmierzać czas,,<<><<,0,0,0,1,,,,,0,5,5,21,,,,,,,,,,,,,,,,,,,,,430.8493498439200,430.8493498439200,right,0,0.8284120230237020,,,,,,12,20,K,N,2023-01-05_11h18.04.044,Flanker,2022.2.4,None,
Przez najbliższe 5 minut proszę kolorować otrzymaną pustą kartkę. Naciśnij spację aby zacząć odmierzać czas,,<<<<<,0,0,0,1,,,,,0,6,6,14,,,,,,,,,,,,,,,,,,,,,432.67670636996600,432.67670636996600,left,0,0.8149645760422570,,,,,,12,20,K,N,2023-01-05_11h18.04.044,Flanker,2022.2.4,None,
Przez najbliższe 5 minut proszę kolorować otrzymaną pustą kartkę. Naciśnij spację aby zacząć odmierzać czas,,>>>>>,0,0,0,1,,,,,0,7,7,4,,,,,,,,,,,,,,,,,,,,,434.4963004000020,434.4963004000020,right,0,0.6623794418992480,,,,,,12,20,K,N,2023-01-05_11h18.04.044,Flanker,2022.2.4,None,
Przez najbliższe 5 minut proszę kolorować otrzymaną pustą kartkę. Naciśnij spację aby zacząć odmierzać czas,,>><>>,0,0,0,1,,,,,0,8,8,37,,,,,,,,,,,,,,,,,,,,,436.17127911991000,436.17127911991000,left,0,1.0124178270343700,,,,,,12,20,K,N,2023-01-05_11h18.04.044,Flanker,2022.2.4,None,
Przez najbliższe 5 minut proszę kolorować otrzymaną pustą kartkę. Naciśnij spację aby zacząć odmierzać czas,,<<<<<,0,0,0,1,,,,,0,9,9,16,,,,,,,,,,,,,,,,,,,,,438.20006971096200,438.20006971096200,left,0,0.6826017729472370,,,,,,12,20,K,N,2023-01-05_11h18.04.044,Flanker,2022.2.4,None,
Przez najbliższe 5 minut proszę kolorować otrzymaną pustą kartkę. Naciśnij spację aby zacząć odmierzać czas,,>>>>>,0,0,0,1,,,,,0,10,10,1,,,,,,,,,,,,,,,,,,,,,439.88251912395900,439.88251912395900,right,0,0.6270580389536920,,,,,,12,20,K,N,2023-01-05_11h18.04.044,Flanker,2022.2.4,None,
Przez najbliższe 5 minut proszę kolorować otrzymaną pustą kartkę. Naciśnij spację aby zacząć odmierzać czas,,<<<<<,0,0,0,1,,,,,0,11,11,18,,,,,,,,,,,,,,,,,,,,,441.51598992501400,441.51598992501400,left,0,0.7204754579579460,,,,,,12,20,K,N,2023-01-05_11h18.04.044,Flanker,2022.2.4,None,
Przez najbliższe 5 minut proszę kolorować otrzymaną pustą kartkę. Naciśnij spację aby zacząć odmierzać czas,,>>>>>,0,0,0,1,,,,,0,12,12,8,,,,,,,,,,,,,,,,,,,,,443.2509351329650,443.2509351329650,right,0,0.47658092295751000,,,,,,12,20,K,N,2023-01-05_11h18.04.044,Flanker,2022.2.4,None,
Przez najbliższe 5 minut proszę kolorować otrzymaną pustą kartkę. Naciśnij spację aby zacząć odmierzać czas,,--<--,0,0,0,1,,,,,0,13,13,44,,,,,,,,,,,,,,,,,,,,,444.7322693479950,444.7322693479950,left,0,0.6531039000255990,,,,,,12,20,K,N,2023-01-05_11h18.04.044,Flanker,2022.2.4,None,
Przez najbliższe 5 minut proszę kolorować otrzymaną pustą kartkę. Naciśnij spację aby zacząć odmierzać czas,,<<><<,0,0,0,1,,,,,0,14,14,29,,,,,,,,,,,,,,,,,,,,,446.4038940339820,446.4038940339820,right,0,0.8864543469389900,,,,,,12,20,K,N,2023-01-05_11h18.04.044,Flanker,2022.2.4,None,
Przez najbliższe 5 minut proszę kolorować otrzymaną pustą kartkę. Naciśnij spację aby zacząć odmierzać czas,,<<><<,0,0,0,1,,,,,0,15,15,23,,,,,,,,,,,,,,,,,,,,,448.30969386396500,448.30969386396500,right,0,0.7167605549329890,,,,,,12,20,K,N,2023-01-05_11h18.04.044,Flanker,2022.2.4,None,
Przez najbliższe 5 minut proszę kolorować otrzymaną pustą kartkę. Naciśnij spację aby zacząć odmierzać czas,,-->--,0,0,0,1,,,,,0,16,16,59,,,,,,,,,,,,,,,,,,,,,450.037616202957,450.037616202957,right,0,0.4767168608959760,,,,,,12,20,K,N,2023-01-05_11h18.04.044,Flanker,2022.2.4,None,
Przez najbliższe 5 minut proszę kolorować otrzymaną pustą kartkę. Naciśnij spację aby zacząć odmierzać czas,,--<--,0,0,0,1,,,,,0,17,17,43,,,,,,,,,,,,,,,,,,,,,451.5106132070070,451.5106132070070,left,0,0.6957500649150460,,,,,,12,20,K,N,2023-01-05_11h18.04.044,Flanker,2022.2.4,None,
Przez najbliższe 5 minut proszę kolorować otrzymaną pustą kartkę. Naciśnij spację aby zacząć odmierzać czas,,<<<<<,0,0,0,1,,,,,0,18,18,15,,,,,,,,,,,,,,,,,,,,,453.2170037869360,453.2170037869360,left,0,0.7432311290176590,,,,,,12,20,K,N,2023-01-05_11h18.04.044,Flanker,2022.2.4,None,
Przez najbliższe 5 minut proszę kolorować otrzymaną pustą kartkę. Naciśnij spację aby zacząć odmierzać czas,,-->--,0,0,0,1,,,,,0,19,19,54,,,,,,,,,,,,,,,,,,,,,454.9858286359810,454.9858286359810,right,0,0.6383682220475750,,,,,,12,20,K,N,2023-01-05_11h18.04.044,Flanker,2022.2.4,None,
Przez najbliższe 5 minut proszę kolorować otrzymaną pustą kartkę. Naciśnij spację aby zacząć odmierzać czas,,<<><<,0,0,0,1,,,,,0,20,20,20,,,,,,,,,,,,,,,,,,,,,456.63219291495600,456.63219291495600,right,0,0.7320142860990020,,,,,,12,20,K,N,2023-01-05_11h18.04.044,Flanker,2022.2.4,None,
Przez najbliższe 5 minut proszę kolorować otrzymaną pustą kartkę. Naciśnij spację aby zacząć odmierzać czas,,<<><<,0,0,0,1,,,,,0,21,21,24,,,,,,,,,,,,,,,,,,,,,458.37590194901000,458.37590194901000,right,0,0.6363420449197290,,,,,,12,20,K,N,2023-01-05_11h18.04.044,Flanker,2022.2.4,None,
Przez najbliższe 5 minut proszę kolorować otrzymaną pustą kartkę. Naciśnij spację aby zacząć odmierzać czas,,>><>>,0,0,0,1,,,,,0,22,22,35,,,,,,,,,,,,,,,,,,,,,460.0283592569180,460.0283592569180,left,0,0.7787499410333110,,,,,,12,20,K,N,2023-01-05_11h18.04.044,Flanker,2022.2.4,None,
Przez najbliższe 5 minut proszę kolorować otrzymaną pustą kartkę. Naciśnij spację aby zacząć odmierzać czas,,--<--,0,0,0,1,,,,,0,23,23,42,,,,,,,,,,,,,,,,,,,,,461.81051825895000,461.81051825895000,left,0,0.6887317938962950,,,,,,12,20,K,N,2023-01-05_11h18.04.044,Flanker,2022.2.4,None,
Przez najbliższe 5 minut proszę kolorować otrzymaną pustą kartkę. Naciśnij spację aby zacząć odmierzać czas,,-->--,0,0,0,1,,,,,0,24,24,55,,,,,,,,,,,,,,,,,,,,,463.50886649801400,463.50886649801400,right,0,0.675250604050234,,,,,,12,20,K,N,2023-01-05_11h18.04.044,Flanker,2022.2.4,None,
Przez najbliższe 5 minut proszę kolorować otrzymaną pustą kartkę. Naciśnij spację aby zacząć odmierzać czas,,>><>>,0,0,0,1,,,,,0,25,25,33,,,,,,,,,,,,,,,,,,,,,465.19284610799500,465.19284610799500,left,0,0.7172658980125560,,,,,,12,20,K,N,2023-01-05_11h18.04.044,Flanker,2022.2.4,None,
Przez najbliższe 5 minut proszę kolorować otrzymaną pustą kartkę. Naciśnij spację aby zacząć odmierzać czas,,-->--,0,0,0,1,,,,,0,26,26,52,,,,,,,,,,,,,,,,,,,,,466.91605072293900,466.91605072293900,right,0,0.6150091940071430,,,,,,12,20,K,N,2023-01-05_11h18.04.044,Flanker,2022.2.4,None,
Przez najbliższe 5 minut proszę kolorować otrzymaną pustą kartkę. Naciśnij spację aby zacząć odmierzać czas,,--<--,0,0,0,1,,,,,0,27,27,47,,,,,,,,,,,,,,,,,,,,,468.5259710919350,468.5259710919350,left,0,0.4498920849291610,,,,,,12,20,K,N,2023-01-05_11h18.04.044,Flanker,2022.2.4,None,
Przez najbliższe 5 minut proszę kolorować otrzymaną pustą kartkę. Naciśnij spację aby zacząć odmierzać czas,,<<<<<,0,0,0,1,,,,,0,28,28,19,,,,,,,,,,,,,,,,,,,,,469.99331609299400,469.99331609299400,left,0,0.44672390108462400,,,,,,12,20,K,N,2023-01-05_11h18.04.044,Flanker,2022.2.4,None,
Przez najbliższe 5 minut proszę kolorować otrzymaną pustą kartkę. Naciśnij spację aby zacząć odmierzać czas,,>><>>,0,0,0,1,,,,,0,29,29,34,,,,,,,,,,,,,,,,,,,,,471.44536736491100,471.44536736491100,left,0,0.521572866011411,,,,,,12,20,K,N,2023-01-05_11h18.04.044,Flanker,2022.2.4,None,
Przez najbliższe 5 minut proszę kolorować otrzymaną pustą kartkę. Naciśnij spację aby zacząć odmierzać czas,,>>>>>,0,0,0,1,,,,,0,30,30,7,,,,,,,,,,,,,,,,,,,,,472.9756798809390,472.9756798809390,right,0,0.38814785808790500,,,,,,12,20,K,N,2023-01-05_11h18.04.044,Flanker,2022.2.4,None,
Przez najbliższe 5 minut proszę kolorować otrzymaną pustą kartkę. Naciśnij spację aby zacząć odmierzać czas,,>><>>,0,0,0,1,,,,,0,31,31,31,,,,,,,,,,,,,,,,,,,,,474.38189707591700,474.38189707591700,left,0,0.659991157008335,,,,,,12,20,K,N,2023-01-05_11h18.04.044,Flanker,2022.2.4,None,
Przez najbliższe 5 minut proszę kolorować otrzymaną pustą kartkę. Naciśnij spację aby zacząć odmierzać czas,,-->--,0,0,0,1,,,,,0,32,32,58,,,,,,,,,,,,,,,,,,,,,476.0537185939030,476.0537185939030,right,0,0.4721533020492640,,,,,,12,20,K,N,2023-01-05_11h18.04.044,Flanker,2022.2.4,None,
Przez najbliższe 5 minut proszę kolorować otrzymaną pustą kartkę. Naciśnij spację aby zacząć odmierzać czas,,<<><<,0,0,0,1,,,,,0,33,33,27,,,,,,,,,,,,,,,,,,,,,477.5269938670100,477.5269938670100,right,0,0.6818095359485600,,,,,,12,20,K,N,2023-01-05_11h18.04.044,Flanker,2022.2.4,None,
Przez najbliższe 5 minut proszę kolorować otrzymaną pustą kartkę. Naciśnij spację aby zacząć odmierzać czas,,-->--,0,0,0,1,,,,,0,34,34,57,,,,,,,,,,,,,,,,,,,,,479.21485215390600,479.21485215390600,right,0,0.4369621690129860,,,,,,12,20,K,N,2023-01-05_11h18.04.044,Flanker,2022.2.4,None,
Przez najbliższe 5 minut proszę kolorować otrzymaną pustą kartkę. Naciśnij spację aby zacząć odmierzać czas,,<<><<,0,0,0,1,,,,,0,35,35,26,,,,,,,,,,,,,,,,,,,,,480.6585272749650,480.6585272749650,left,0,0.39019490394275600,,,,,,12,20,K,N,2023-01-05_11h18.04.044,Flanker,2022.2.4,None,
Przez najbliższe 5 minut proszę kolorować otrzymaną pustą kartkę. Naciśnij spację aby zacząć odmierzać czas,,--<--,0,0,0,1,,,,,0,36,36,46,,,,,,,,,,,,,,,,,,,,,482.05358402698800,482.05358402698800,left,0,0.593090872047469,,,,,,12,20,K,N,2023-01-05_11h18.04.044,Flanker,2022.2.4,None,
Przez najbliższe 5 minut proszę kolorować otrzymaną pustą kartkę. Naciśnij spację aby zacząć odmierzać czas,,>>>>>,0,0,0,1,,,,,0,37,37,0,,,,,,,,,,,,,,,,,,,,,483.6549575210080,483.6549575210080,right,0,0.4776750849559900,,,,,,12,20,K,N,2023-01-05_11h18.04.044,Flanker,2022.2.4,None,
Przez najbliższe 5 minut proszę kolorować otrzymaną pustą kartkę. Naciśnij spację aby zacząć odmierzać czas,,<<<<<,0,0,0,1,,,,,0,38,38,11,,,,,,,,,,,,,,,,,,,,,485.13274045090700,485.13274045090700,left,0,0.5518641440430660,,,,,,12,20,K,N,2023-01-05_11h18.04.044,Flanker,2022.2.4,None,
Przez najbliższe 5 minut proszę kolorować otrzymaną pustą kartkę. Naciśnij spację aby zacząć odmierzać czas,,>>>>> ,0,0,0,1,,,,,0,39,39,5,,,,,,,,,,,,,,,,,,,,,486.69370941992400,486.69370941992400,right,0,0.5498071500333030,,,,,,12,20,K,N,2023-01-05_11h18.04.044,Flanker,2022.2.4,None,
Przez najbliższe 5 minut proszę kolorować otrzymaną pustą kartkę. Naciśnij spację aby zacząć odmierzać czas,,>><>>,0,0,0,1,,,,,0,40,40,38,,,,,,,,,,,,,,,,,,,,,488.25392589194200,488.25392589194200,left,0,0.7225593300536280,,,,,,12,20,K,N,2023-01-05_11h18.04.044,Flanker,2022.2.4,None,
Przez najbliższe 5 minut proszę kolorować otrzymaną pustą kartkę. Naciśnij spację aby zacząć odmierzać czas,,>><>>,0,0,0,1,,,,,0,41,41,39,,,,,,,,,,,,,,,,,,,,,489.9891558579400,489.9891558579400,left,0,0.5764729579677810,,,,,,12,20,K,N,2023-01-05_11h18.04.044,Flanker,2022.2.4,None,
Przez najbliższe 5 minut proszę kolorować otrzymaną pustą kartkę. Naciśnij spację aby zacząć odmierzać czas,,<<><<,0,0,0,1,,,,,0,42,42,25,,,,,,,,,,,,,,,,,,,,,491.5651175829120,491.5651175829120,right,0,0.7422816710313780,,,,,,12,20,K,N,2023-01-05_11h18.04.044,Flanker,2022.2.4,None,
Przez najbliższe 5 minut proszę kolorować otrzymaną pustą kartkę. Naciśnij spację aby zacząć odmierzać czas,,-->--,0,0,0,1,,,,,0,43,43,51,,,,,,,,,,,,,,,,,,,,,493.33251884090700,493.33251884090700,right,0,0.5078394650481640,,,,,,12,20,K,N,2023-01-05_11h18.04.044,Flanker,2022.2.4,None,
Przez najbliższe 5 minut proszę kolorować otrzymaną pustą kartkę. Naciśnij spację aby zacząć odmierzać czas,,-->--,0,0,0,1,,,,,0,44,44,53,,,,,,,,,,,,,,,,,,,,,494.8582783639430,494.8582783639430,right,0,0.4490177360130470,,,,,,12,20,K,N,2023-01-05_11h18.04.044,Flanker,2022.2.4,None,
Przez najbliższe 5 minut proszę kolorować otrzymaną pustą kartkę. Naciśnij spację aby zacząć odmierzać czas,,>>>>>,0,0,0,1,,,,,0,45,45,3,,,,,,,,,,,,,,,,,,,,,496.3299865719160,496.3299865719160,right,0,0.5085711339488630,,,,,,12,20,K,N,2023-01-05_11h18.04.044,Flanker,2022.2.4,None,
Przez najbliższe 5 minut proszę kolorować otrzymaną pustą kartkę. Naciśnij spację aby zacząć odmierzać czas,,--<--,0,0,0,1,,,,,0,46,46,41,,,,,,,,,,,,,,,,,,,,,497.858459362993,497.858459362993,left,0,0.5159204849042000,,,,,,12,20,K,N,2023-01-05_11h18.04.044,Flanker,2022.2.4,None,
Przez najbliższe 5 minut proszę kolorować otrzymaną pustą kartkę. Naciśnij spację aby zacząć odmierzać czas,,-->--,0,0,0,1,,,,,0,47,47,56,,,,,,,,,,,,,,,,,,,,,499.38765771198100,499.38765771198100,right,0,0.491698008030653,,,,,,12,20,K,N,2023-01-05_11h18.04.044,Flanker,2022.2.4,None,
Przez najbliższe 5 minut proszę kolorować otrzymaną pustą kartkę. Naciśnij spację aby zacząć odmierzać czas,,<<<<<,0,0,0,1,,,,,0,48,48,17,,,,,,,,,,,,,,,,,,,,,500.8844132559610,500.8844132559610,left,0,0.45393984590191400,,,,,,12,20,K,N,2023-01-05_11h18.04.044,Flanker,2022.2.4,None,
Przez najbliższe 5 minut proszę kolorować otrzymaną pustą kartkę. Naciśnij spację aby zacząć odmierzać czas,,<<<<<,0,0,0,1,,,,,0,49,49,12,,,,,,,,,,,,,,,,,,,,,502.34373723797000,502.34373723797000,left,0,0.41549123695585900,,,,,,12,20,K,N,2023-01-05_11h18.04.044,Flanker,2022.2.4,None,
Przez najbliższe 5 minut proszę kolorować otrzymaną pustą kartkę. Naciśnij spację aby zacząć odmierzać czas,,>>>>>,0,0,0,1,,,,,0,50,50,9,,,,,,,,,,,,,,,,,,,,,503.7722840060010,503.7722840060010,right,0,0.5378442829241980,,,,,,12,20,K,N,2023-01-05_11h18.04.044,Flanker,2022.2.4,None,
Przez najbliższe 5 minut proszę kolorować otrzymaną pustą kartkę. Naciśnij spację aby zacząć odmierzać czas,,>><>>,0,0,0,1,,,,,0,51,51,30,,,,,,,,,,,,,,,,,,,,,505.3199005689240,505.3199005689240,left,0,0.6813420210964980,,,,,,12,20,K,N,2023-01-05_11h18.04.044,Flanker,2022.2.4,None,
Przez najbliższe 5 minut proszę kolorować otrzymaną pustą kartkę. Naciśnij spację aby zacząć odmierzać czas,,-->--,0,0,0,1,,,,,0,52,52,50,,,,,,,,,,,,,,,,,,,,,507.0097441750110,507.0097441750110,right,0,0.40445775096304700,,,,,,12,20,K,N,2023-01-05_11h18.04.044,Flanker,2022.2.4,None,
Przez najbliższe 5 minut proszę kolorować otrzymaną pustą kartkę. Naciśnij spację aby zacząć odmierzać czas,,>>>>>,0,0,0,1,,,,,0,53,53,2,,,,,,,,,,,,,,,,,,,,,508.422681737924,508.422681737924,right,0,0.44749731000047200,,,,,,12,20,K,N,2023-01-05_11h18.04.044,Flanker,2022.2.4,None,
Przez najbliższe 5 minut proszę kolorować otrzymaną pustą kartkę. Naciśnij spację aby zacząć odmierzać czas,,<<<<<,0,0,0,1,,,,,0,54,54,13,,,,,,,,,,,,,,,,,,,,,509.8699868050170,509.8699868050170,left,0,0.5101269129663710,,,,,,12,20,K,N,2023-01-05_11h18.04.044,Flanker,2022.2.4,None,
Przez najbliższe 5 minut proszę kolorować otrzymaną pustą kartkę. Naciśnij spację aby zacząć odmierzać czas,,<<<<<,0,0,0,1,,,,,0,55,55,10,,,,,,,,,,,,,,,,,,,,,511.39801617199600,511.39801617199600,left,0,0.41911952407099300,,,,,,12,20,K,N,2023-01-05_11h18.04.044,Flanker,2022.2.4,None,
Przez najbliższe 5 minut proszę kolorować otrzymaną pustą kartkę. Naciśnij spację aby zacząć odmierzać czas,,<<><<,0,0,0,1,,,,,0,56,56,28,,,,,,,,,,,,,,,,,,,,,512.8330555359130,512.8330555359130,right,0,0.5680133610730990,,,,,,12,20,K,N,2023-01-05_11h18.04.044,Flanker,2022.2.4,None,
Przez najbliższe 5 minut proszę kolorować otrzymaną pustą kartkę. Naciśnij spację aby zacząć odmierzać czas,,>>>>>,0,0,0,1,,,,,0,57,57,6,,,,,,,,,,,,,,,,,,,,,514.4035487209910,514.4035487209910,right,0,0.5045056489761920,,,,,,12,20,K,N,2023-01-05_11h18.04.044,Flanker,2022.2.4,None,
Przez najbliższe 5 minut proszę kolorować otrzymaną pustą kartkę. Naciśnij spację aby zacząć odmierzać czas,,--<--,0,0,0,1,,,,,0,58,58,40,,,,,,,,,,,,,,,,,,,,,515.9082073309690,515.9082073309690,left,0,0.5028331530047580,,,,,,12,20,K,N,2023-01-05_11h18.04.044,Flanker,2022.2.4,None,
Przez najbliższe 5 minut proszę kolorować otrzymaną pustą kartkę. Naciśnij spację aby zacząć odmierzać czas,,--<--,0,0,0,1,,,,,0,59,59,45,,,,,,,,,,,,,,,,,,,,,517.4208598949480,517.4208598949480,left,0,0.3722253229934720,,,,,,12,20,K,N,2023-01-05_11h18.04.044,Flanker,2022.2.4,None,
Przez najbliższe 5 minut proszę kolorować otrzymaną pustą kartkę. Naciśnij spację aby zacząć odmierzać czas,,,0,0,0,1,,,,,,,,,,,,,,,,,,,,,,,,,,,,,,,,,,,,,,,12,20,K,N,2023-01-05_11h18.04.044,Flanker,2022.2.4,None,
Przez najbliższe 5 minut proszę kolorować otrzymaną kolorwankę z mandalą. Naciśnij spację aby zacząć odmierzać czas,>>>>>,,0,1,1,0,0,0,0,1,,,,,,,,,517.8393410349960,518.8072771090080,space,6.384705416043290,525.2178869409250,825.2300621079050,827.2121182850100,space,9.309129829052840,836.547534681973,845.5280102969850,845.5280102969850,right,0,0.5880465960362930,,,,,,,,,,,,12,20,K,N,2023-01-05_11h18.04.044,Flanker,2022.2.4,None,
Przez najbliższe 5 minut proszę kolorować otrzymaną kolorwankę z mandalą. Naciśnij spację aby zacząć odmierzać czas,>><>>,,0,1,1,0,0,1,1,3,,,,,,,,,,,,,,,,,,,847.1274344819830,847.1274344819830,left,0,0.659371727029793,,,,,,,,,,,,12,20,K,N,2023-01-05_11h18.04.044,Flanker,2022.2.4,None,
Przez najbliższe 5 minut proszę kolorować otrzymaną kolorwankę z mandalą. Naciśnij spację aby zacząć odmierzać czas,<<><<,,0,1,1,0,0,2,2,2,,,,,,,,,,,,,,,,,,,848.7983675769070,848.7983675769070,right,0,0.9153153870720420,,,,,,,,,,,,12,20,K,N,2023-01-05_11h18.04.044,Flanker,2022.2.4,None,
Przez najbliższe 5 minut proszę kolorować otrzymaną kolorwankę z mandalą. Naciśnij spację aby zacząć odmierzać czas,--<--,,0,1,1,0,0,3,3,4,,,,,,,,,,,,,,,,,,,850.7299118159570,850.7299118159570,left,0,0.6599678460042920,,,,,,,,,,,,12,20,K,N,2023-01-05_11h18.04.044,Flanker,2022.2.4,None,
Przez najbliższe 5 minut proszę kolorować otrzymaną kolorwankę z mandalą. Naciśnij spację aby zacząć odmierzać czas,<<<<<,,0,1,1,0,0,4,4,0,,,,,,,,,,,,,,,,,,,852.4037888759050,852.4037888759050,left,0,0.469889875035733,,,,,,,,,,,,12,20,K,N,2023-01-05_11h18.04.044,Flanker,2022.2.4,None,
Przez najbliższe 5 minut proszę kolorować otrzymaną kolorwankę z mandalą. Naciśnij spację aby zacząć odmierzać czas,-->--,,0,1,1,0,0,5,5,5,,,,,,,,,,,,,,,,,,,853.8935451809080,853.8935451809080,right,0,0.4842036849586290,,,,,,,,,,,,12,20,K,N,2023-01-05_11h18.04.044,Flanker,2022.2.4,None,
Przez najbliższe 5 minut proszę kolorować otrzymaną kolorwankę z mandalą. Naciśnij spację aby zacząć odmierzać czas,,>><>>,0,1,1,0,,,,,0,0,0,30,,,,,,,,,,,,,,,,,,,,855.3833558029730,863.3954217449060,863.3954217449060,left,0,0.811854841071181,862.3921090159570,,,,,12,20,K,N,2023-01-05_11h18.04.044,Flanker,2022.2.4,None,
Przez najbliższe 5 minut proszę kolorować otrzymaną kolorwankę z mandalą. Naciśnij spację aby zacząć odmierzać czas,,--<--,0,1,1,0,,,,,0,1,1,46,,,,,,,,,,,,,,,,,,,,,865.2169063629120,865.2169063629120,left,0,0.5613232370233160,,,,,,12,20,K,N,2023-01-05_11h18.04.044,Flanker,2022.2.4,None,
Przez najbliższe 5 minut proszę kolorować otrzymaną kolorwankę z mandalą. Naciśnij spację aby zacząć odmierzać czas,,-->--,0,1,1,0,,,,,0,2,2,58,,,,,,,,,,,,,,,,,,,,,866.7778621959730,866.7778621959730,right,0,0.48830332909710700,,,,,,12,20,K,N,2023-01-05_11h18.04.044,Flanker,2022.2.4,None,
Przez najbliższe 5 minut proszę kolorować otrzymaną kolorwankę z mandalą. Naciśnij spację aby zacząć odmierzać czas,,>><>>,0,1,1,0,,,,,0,3,3,34,,,,,,,,,,,,,,,,,,,,,868.2657072049330,868.2657072049330,left,0,0.536368643050082,,,,,,12,20,K,N,2023-01-05_11h18.04.044,Flanker,2022.2.4,None,
Przez najbliższe 5 minut proszę kolorować otrzymaną kolorwankę z mandalą. Naciśnij spację aby zacząć odmierzać czas,,>><>>,0,1,1,0,,,,,0,4,4,32,,,,,,,,,,,,,,,,,,,,,869.8302848369350,869.8302848369350,left,0,0.5468364800326530,,,,,,12,20,K,N,2023-01-05_11h18.04.044,Flanker,2022.2.4,None,
Przez najbliższe 5 minut proszę kolorować otrzymaną kolorwankę z mandalą. Naciśnij spację aby zacząć odmierzać czas,,-->--,0,1,1,0,,,,,0,5,5,52,,,,,,,,,,,,,,,,,,,,,871.382546475972,871.382546475972,right,0,0.5215592250460760,,,,,,12,20,K,N,2023-01-05_11h18.04.044,Flanker,2022.2.4,None,
Przez najbliższe 5 minut proszę kolorować otrzymaną kolorwankę z mandalą. Naciśnij spację aby zacząć odmierzać czas,,<<<<<,0,1,1,0,,,,,0,6,6,16,,,,,,,,,,,,,,,,,,,,,872.9283921020110,872.9283921020110,left,0,0.4215929909842090,,,,,,12,20,K,N,2023-01-05_11h18.04.044,Flanker,2022.2.4,None,
Przez najbliższe 5 minut proszę kolorować otrzymaną kolorwankę z mandalą. Naciśnij spację aby zacząć odmierzać czas,,>><>>,0,1,1,0,,,,,0,7,7,36,,,,,,,,,,,,,,,,,,,,,874.359706453979,874.359706453979,left,0,0.5411867449292910,,,,,,12,20,K,N,2023-01-05_11h18.04.044,Flanker,2022.2.4,None,
Przez najbliższe 5 minut proszę kolorować otrzymaną kolorwankę z mandalą. Naciśnij spację aby zacząć odmierzać czas,,>><>>,0,1,1,0,,,,,0,8,8,31,,,,,,,,,,,,,,,,,,,,,875.9133404139430,875.9133404139430,left,0,0.53165878506843,,,,,,12,20,K,N,2023-01-05_11h18.04.044,Flanker,2022.2.4,None,
Przez najbliższe 5 minut proszę kolorować otrzymaną kolorwankę z mandalą. Naciśnij spację aby zacząć odmierzać czas,,-->--,0,1,1,0,,,,,0,9,9,57,,,,,,,,,,,,,,,,,,,,,877.453914765967,877.453914765967,right,0,0.45798758103046600,,,,,,12,20,K,N,2023-01-05_11h18.04.044,Flanker,2022.2.4,None,
Przez najbliższe 5 minut proszę kolorować otrzymaną kolorwankę z mandalą. Naciśnij spację aby zacząć odmierzać czas,,-->--,0,1,1,0,,,,,0,10,10,51,,,,,,,,,,,,,,,,,,,,,878.9156150029740,878.9156150029740,right,0,0.5301081920042630,,,,,,12,20,K,N,2023-01-05_11h18.04.044,Flanker,2022.2.4,None,
Przez najbliższe 5 minut proszę kolorować otrzymaną kolorwankę z mandalą. Naciśnij spację aby zacząć odmierzać czas,,<<<<<,0,1,1,0,,,,,0,11,11,17,,,,,,,,,,,,,,,,,,,,,880.4483539009230,880.4483539009230,left,0,0.41350052098278000,,,,,,12,20,K,N,2023-01-05_11h18.04.044,Flanker,2022.2.4,None,
Przez najbliższe 5 minut proszę kolorować otrzymaną kolorwankę z mandalą. Naciśnij spację aby zacząć odmierzać czas,,--<--,0,1,1,0,,,,,0,12,12,47,,,,,,,,,,,,,,,,,,,,,881.881306953961,881.881306953961,left,0,0.41758994304109400,,,,,,12,20,K,N,2023-01-05_11h18.04.044,Flanker,2022.2.4,None,
Przez najbliższe 5 minut proszę kolorować otrzymaną kolorwankę z mandalą. Naciśnij spację aby zacząć odmierzać czas,,-->--,0,1,1,0,,,,,0,13,13,53,,,,,,,,,,,,,,,,,,,,,883.3045253799060,883.3045253799060,right,0,0.4642977350158620,,,,,,12,20,K,N,2023-01-05_11h18.04.044,Flanker,2022.2.4,None,
Przez najbliższe 5 minut proszę kolorować otrzymaną kolorwankę z mandalą. Naciśnij spację aby zacząć odmierzać czas,,>><>>,0,1,1,0,,,,,0,14,14,39,,,,,,,,,,,,,,,,,,,,,884.7800993199930,884.7800993199930,left,0,0.4097358890576290,,,,,,12,20,K,N,2023-01-05_11h18.04.044,Flanker,2022.2.4,None,
Przez najbliższe 5 minut proszę kolorować otrzymaną kolorwankę z mandalą. Naciśnij spację aby zacząć odmierzać czas,,>><>>,0,1,1,0,,,,,0,15,15,35,,,,,,,,,,,,,,,,,,,,,886.2031634009910,886.2031634009910,left,0,0.4725778070278470,,,,,,12,20,K,N,2023-01-05_11h18.04.044,Flanker,2022.2.4,None,
Przez najbliższe 5 minut proszę kolorować otrzymaną kolorwankę z mandalą. Naciśnij spację aby zacząć odmierzać czas,,--<--,0,1,1,0,,,,,0,16,16,40,,,,,,,,,,,,,,,,,,,,,887.682861809968,887.682861809968,left,0,0.4028251980198550,,,,,,12,20,K,N,2023-01-05_11h18.04.044,Flanker,2022.2.4,None,
Przez najbliższe 5 minut proszę kolorować otrzymaną kolorwankę z mandalą. Naciśnij spację aby zacząć odmierzać czas,,>>>>>,0,1,1,0,,,,,0,17,17,9,,,,,,,,,,,,,,,,,,,,,889.0930963869910,889.0930963869910,right,0,0.5275652310810980,,,,,,12,20,K,N,2023-01-05_11h18.04.044,Flanker,2022.2.4,None,
Przez najbliższe 5 minut proszę kolorować otrzymaną kolorwankę z mandalą. Naciśnij spację aby zacząć odmierzać czas,,<<<<<,0,1,1,0,,,,,0,18,18,13,,,,,,,,,,,,,,,,,,,,,890.6380512629400,890.6380512629400,left,0,0.4645443169865760,,,,,,12,20,K,N,2023-01-05_11h18.04.044,Flanker,2022.2.4,None,
Przez najbliższe 5 minut proszę kolorować otrzymaną kolorwankę z mandalą. Naciśnij spację aby zacząć odmierzać czas,,--<--,0,1,1,0,,,,,0,19,19,42,,,,,,,,,,,,,,,,,,,,,892.1046812299170,892.1046812299170,left,0,0.5588582450291140,,,,,,12,20,K,N,2023-01-05_11h18.04.044,Flanker,2022.2.4,None,
Przez najbliższe 5 minut proszę kolorować otrzymaną kolorwankę z mandalą. Naciśnij spację aby zacząć odmierzać czas,,<<><<,0,1,1,0,,,,,0,20,20,24,,,,,,,,,,,,,,,,,,,,,893.6781618579990,893.6781618579990,right,0,0.8713999139145020,,,,,,12,20,K,N,2023-01-05_11h18.04.044,Flanker,2022.2.4,None,
Przez najbliższe 5 minut proszę kolorować otrzymaną kolorwankę z mandalą. Naciśnij spację aby zacząć odmierzać czas,,--<--,0,1,1,0,,,,,0,21,21,48,,,,,,,,,,,,,,,,,,,,,895.5530851709190,895.5530851709190,left,0,0.4075586259132250,,,,,,12,20,K,N,2023-01-05_11h18.04.044,Flanker,2022.2.4,None,
Przez najbliższe 5 minut proszę kolorować otrzymaną kolorwankę z mandalą. Naciśnij spację aby zacząć odmierzać czas,,<<><<,0,1,1,0,,,,,0,22,22,28,,,,,,,,,,,,,,,,,,,,,896.9666472459210,896.9666472459210,right,0,0.7679484919644890,,,,,,12,20,K,N,2023-01-05_11h18.04.044,Flanker,2022.2.4,None,
Przez najbliższe 5 minut proszę kolorować otrzymaną kolorwankę z mandalą. Naciśnij spację aby zacząć odmierzać czas,,>>>>>,0,1,1,0,,,,,0,23,23,6,,,,,,,,,,,,,,,,,,,,,898.7431249159850,898.7431249159850,right,0,0.5392974549904470,,,,,,12,20,K,N,2023-01-05_11h18.04.044,Flanker,2022.2.4,None,
Przez najbliższe 5 minut proszę kolorować otrzymaną kolorwankę z mandalą. Naciśnij spację aby zacząć odmierzać czas,,--<--,0,1,1,0,,,,,0,24,24,49,,,,,,,,,,,,,,,,,,,,,900.3081174559190,900.3081174559190,left,0,0.45627673401031600,,,,,,12,20,K,N,2023-01-05_11h18.04.044,Flanker,2022.2.4,None,
Przez najbliższe 5 minut proszę kolorować otrzymaną kolorwankę z mandalą. Naciśnij spację aby zacząć odmierzać czas,,>>>>>,0,1,1,0,,,,,0,25,25,3,,,,,,,,,,,,,,,,,,,,,901.7783796589360,901.7783796589360,right,0,0.44792744505684800,,,,,,12,20,K,N,2023-01-05_11h18.04.044,Flanker,2022.2.4,None,
Przez najbliższe 5 minut proszę kolorować otrzymaną kolorwankę z mandalą. Naciśnij spację aby zacząć odmierzać czas,,<<><<,0,1,1,0,,,,,0,26,26,21,,,,,,,,,,,,,,,,,,,,,903.2426570769170,903.2426570769170,right,0,0.6315778330899780,,,,,,12,20,K,N,2023-01-05_11h18.04.044,Flanker,2022.2.4,None,
Przez najbliższe 5 minut proszę kolorować otrzymaną kolorwankę z mandalą. Naciśnij spację aby zacząć odmierzać czas,,>><>>,0,1,1,0,,,,,0,27,27,37,,,,,,,,,,,,,,,,,,,,,904.8798110849460,904.8798110849460,left,0,0.6654540810268370,,,,,,12,20,K,N,2023-01-05_11h18.04.044,Flanker,2022.2.4,None,
Przez najbliższe 5 minut proszę kolorować otrzymaną kolorwankę z mandalą. Naciśnij spację aby zacząć odmierzać czas,,-->--,0,1,1,0,,,,,0,28,28,59,,,,,,,,,,,,,,,,,,,,,906.5539800229020,906.5539800229020,right,0,0.4713774089468640,,,,,,12,20,K,N,2023-01-05_11h18.04.044,Flanker,2022.2.4,None,
Przez najbliższe 5 minut proszę kolorować otrzymaną kolorwankę z mandalą. Naciśnij spację aby zacząć odmierzać czas,,<<><<,0,1,1,0,,,,,0,29,29,26,,,,,,,,,,,,,,,,,,,,,908.0259073779450,908.0259073779450,right,0,0.7312124720774590,,,,,,12,20,K,N,2023-01-05_11h18.04.044,Flanker,2022.2.4,None,
Przez najbliższe 5 minut proszę kolorować otrzymaną kolorwankę z mandalą. Naciśnij spację aby zacząć odmierzać czas,,<<><<,0,1,1,0,,,,,0,30,30,20,,,,,,,,,,,,,,,,,,,,,909.7595763989960,909.7595763989960,right,0,0.6026755789062010,,,,,,12,20,K,N,2023-01-05_11h18.04.044,Flanker,2022.2.4,None,
Przez najbliższe 5 minut proszę kolorować otrzymaną kolorwankę z mandalą. Naciśnij spację aby zacząć odmierzać czas,,>>>>> ,0,1,1,0,,,,,0,31,31,5,,,,,,,,,,,,,,,,,,,,,911.3823089660150,911.3823089660150,right,0,0.4298735068878160,,,,,,12,20,K,N,2023-01-05_11h18.04.044,Flanker,2022.2.4,None,
Przez najbliższe 5 minut proszę kolorować otrzymaną kolorwankę z mandalą. Naciśnij spację aby zacząć odmierzać czas,,>>>>>,0,1,1,0,,,,,0,32,32,8,,,,,,,,,,,,,,,,,,,,,912.8147287109170,912.8147287109170,right,0,0.41345680807717100,,,,,,12,20,K,N,2023-01-05_11h18.04.044,Flanker,2022.2.4,None,
Przez najbliższe 5 minut proszę kolorować otrzymaną kolorwankę z mandalą. Naciśnij spację aby zacząć odmierzać czas,,>>>>>,0,1,1,0,,,,,0,33,33,7,,,,,,,,,,,,,,,,,,,,,914.2376623469170,914.2376623469170,right,0,0.38238282897509600,,,,,,12,20,K,N,2023-01-05_11h18.04.044,Flanker,2022.2.4,None,
Przez najbliższe 5 minut proszę kolorować otrzymaną kolorwankę z mandalą. Naciśnij spację aby zacząć odmierzać czas,,>>>>>,0,1,1,0,,,,,0,34,34,4,,,,,,,,,,,,,,,,,,,,,915.6261278409510,915.6261278409510,right,0,0.5080002719769250,,,,,,12,20,K,N,2023-01-05_11h18.04.044,Flanker,2022.2.4,None,
Przez najbliższe 5 minut proszę kolorować otrzymaną kolorwankę z mandalą. Naciśnij spację aby zacząć odmierzać czas,,>>>>>,0,1,1,0,,,,,0,35,35,0,,,,,,,,,,,,,,,,,,,,,917.142847148003,917.142847148003,right,0,0.5892828810028730,,,,,,12,20,K,N,2023-01-05_11h18.04.044,Flanker,2022.2.4,None,
Przez najbliższe 5 minut proszę kolorować otrzymaną kolorwankę z mandalą. Naciśnij spację aby zacząć odmierzać czas,,-->--,0,1,1,0,,,,,0,36,36,54,,,,,,,,,,,,,,,,,,,,,918.7381418219300,918.7381418219300,right,0,0.5566828430164610,,,,,,12,20,K,N,2023-01-05_11h18.04.044,Flanker,2022.2.4,None,
Przez najbliższe 5 minut proszę kolorować otrzymaną kolorwankę z mandalą. Naciśnij spację aby zacząć odmierzać czas,,>>>>>,0,1,1,0,,,,,0,37,37,2,,,,,,,,,,,,,,,,,,,,,920.2990070289230,920.2990070289230,right,0,0.49197861505672300,,,,,,12,20,K,N,2023-01-05_11h18.04.044,Flanker,2022.2.4,None,
Przez najbliższe 5 minut proszę kolorować otrzymaną kolorwankę z mandalą. Naciśnij spację aby zacząć odmierzać czas,,<<><<,0,1,1,0,,,,,0,38,38,27,,,,,,,,,,,,,,,,,,,,,921.7978446249620,921.7978446249620,right,0,0.9350833599455660,,,,,,12,20,K,N,2023-01-05_11h18.04.044,Flanker,2022.2.4,None,
Przez najbliższe 5 minut proszę kolorować otrzymaną kolorwankę z mandalą. Naciśnij spację aby zacząć odmierzać czas,,<<<<<,0,1,1,0,,,,,0,39,39,15,,,,,,,,,,,,,,,,,,,,,923.7332864740170,923.7332864740170,left,0,0.5256574179511520,,,,,,12,20,K,N,2023-01-05_11h18.04.044,Flanker,2022.2.4,None,
Przez najbliższe 5 minut proszę kolorować otrzymaną kolorwankę z mandalą. Naciśnij spację aby zacząć odmierzać czas,,>>>>>,0,1,1,0,,,,,0,40,40,1,,,,,,,,,,,,,,,,,,,,,925.2640616969440,925.2640616969440,right,0,0.5657946260180320,,,,,,12,20,K,N,2023-01-05_11h18.04.044,Flanker,2022.2.4,None,
Przez najbliższe 5 minut proszę kolorować otrzymaną kolorwankę z mandalą. Naciśnij spację aby zacząć odmierzać czas,,<<><<,0,1,1,0,,,,,0,41,41,23,,,,,,,,,,,,,,,,,,,,,926.8458720059130,926.8458720059130,right,0,0.7201134120114150,,,,,,12,20,K,N,2023-01-05_11h18.04.044,Flanker,2022.2.4,None,
Przez najbliższe 5 minut proszę kolorować otrzymaną kolorwankę z mandalą. Naciśnij spację aby zacząć odmierzać czas,,-->--,0,1,1,0,,,,,0,42,42,50,,,,,,,,,,,,,,,,,,,,,928.575533502968,928.575533502968,right,0,0.4501611409941690,,,,,,12,20,K,N,2023-01-05_11h18.04.044,Flanker,2022.2.4,None,
Przez najbliższe 5 minut proszę kolorować otrzymaną kolorwankę z mandalą. Naciśnij spację aby zacząć odmierzać czas,,--<--,0,1,1,0,,,,,0,43,43,44,,,,,,,,,,,,,,,,,,,,,930.019668513909,930.019668513909,left,0,0.47201429994311200,,,,,,12,20,K,N,2023-01-05_11h18.04.044,Flanker,2022.2.4,None,
Przez najbliższe 5 minut proszę kolorować otrzymaną kolorwankę z mandalą. Naciśnij spację aby zacząć odmierzać czas,,<<<<<,0,1,1,0,,,,,0,44,44,11,,,,,,,,,,,,,,,,,,,,,931.5026702429170,931.5026702429170,left,0,0.5250690199900420,,,,,,12,20,K,N,2023-01-05_11h18.04.044,Flanker,2022.2.4,None,
Przez najbliższe 5 minut proszę kolorować otrzymaną kolorwankę z mandalą. Naciśnij spację aby zacząć odmierzać czas,,<<><<,0,1,1,0,,,,,0,45,45,29,,,,,,,,,,,,,,,,,,,,,933.0466456169960,933.0466456169960,right,0,0.6832594210281970,,,,,,12,20,K,N,2023-01-05_11h18.04.044,Flanker,2022.2.4,None,
Przez najbliższe 5 minut proszę kolorować otrzymaną kolorwankę z mandalą. Naciśnij spację aby zacząć odmierzać czas,,<<<<<,0,1,1,0,,,,,0,46,46,18,,,,,,,,,,,,,,,,,,,,,934.7367907669400,934.7367907669400,left,0,0.46982361702248500,,,,,,12,20,K,N,2023-01-05_11h18.04.044,Flanker,2022.2.4,None,
Przez najbliższe 5 minut proszę kolorować otrzymaną kolorwankę z mandalą. Naciśnij spację aby zacząć odmierzać czas,,-->--,0,1,1,0,,,,,0,47,47,55,,,,,,,,,,,,,,,,,,,,,936.2137672109530,936.2137672109530,right,0,0.4630326429614800,,,,,,12,20,K,N,2023-01-05_11h18.04.044,Flanker,2022.2.4,None,
Przez najbliższe 5 minut proszę kolorować otrzymaną kolorwankę z mandalą. Naciśnij spację aby zacząć odmierzać czas,,<<<<<,0,1,1,0,,,,,0,48,48,14,,,,,,,,,,,,,,,,,,,,,937.6858547559240,937.6858547559240,left,0,0.49269357800949400,,,,,,12,20,K,N,2023-01-05_11h18.04.044,Flanker,2022.2.4,None,
Przez najbliższe 5 minut proszę kolorować otrzymaną kolorwankę z mandalą. Naciśnij spację aby zacząć odmierzać czas,,<<<<<,0,1,1,0,,,,,0,49,49,10,,,,,,,,,,,,,,,,,,,,,939.1823819839630,939.1823819839630,left,0,0.35603399807587300,,,,,,12,20,K,N,2023-01-05_11h18.04.044,Flanker,2022.2.4,None,
Przez najbliższe 5 minut proszę kolorować otrzymaną kolorwankę z mandalą. Naciśnij spację aby zacząć odmierzać czas,,--<--,0,1,1,0,,,,,0,50,50,41,,,,,,,,,,,,,,,,,,,,,940.5478524639040,940.5478524639040,left,0,0.4357555160531770,,,,,,12,20,K,N,2023-01-05_11h18.04.044,Flanker,2022.2.4,None,
Przez najbliższe 5 minut proszę kolorować otrzymaną kolorwankę z mandalą. Naciśnij spację aby zacząć odmierzać czas,,>><>>,0,1,1,0,,,,,0,51,51,38,,,,,,,,,,,,,,,,,,,,,941.9866775859850,941.9866775859850,left,0,0.6298382070381190,,,,,,12,20,K,N,2023-01-05_11h18.04.044,Flanker,2022.2.4,None,
Przez najbliższe 5 minut proszę kolorować otrzymaną kolorwankę z mandalą. Naciśnij spację aby zacząć odmierzać czas,,-->--,0,1,1,0,,,,,0,52,52,56,,,,,,,,,,,,,,,,,,,,,943.6322095399960,943.6322095399960,right,0,0.5382603469770400,,,,,,12,20,K,N,2023-01-05_11h18.04.044,Flanker,2022.2.4,None,
Przez najbliższe 5 minut proszę kolorować otrzymaną kolorwankę z mandalą. Naciśnij spację aby zacząć odmierzać czas,,<<><<,0,1,1,0,,,,,0,53,53,25,,,,,,,,,,,,,,,,,,,,,945.1809337099550,945.1809337099550,right,0,0.7174968370236460,,,,,,12,20,K,N,2023-01-05_11h18.04.044,Flanker,2022.2.4,None,
Przez najbliższe 5 minut proszę kolorować otrzymaną kolorwankę z mandalą. Naciśnij spację aby zacząć odmierzać czas,,<<><<,0,1,1,0,,,,,0,54,54,22,,,,,,,,,,,,,,,,,,,,,946.9089762899090,946.9089762899090,right,0,0.48548236896749600,,,,,,12,20,K,N,2023-01-05_11h18.04.044,Flanker,2022.2.4,None,
Przez najbliższe 5 minut proszę kolorować otrzymaną kolorwankę z mandalą. Naciśnij spację aby zacząć odmierzać czas,,<<<<<,0,1,1,0,,,,,0,55,55,12,,,,,,,,,,,,,,,,,,,,,948.4034668379460,948.4034668379460,left,0,0.47389214707072800,,,,,,12,20,K,N,2023-01-05_11h18.04.044,Flanker,2022.2.4,None,
Przez najbliższe 5 minut proszę kolorować otrzymaną kolorwankę z mandalą. Naciśnij spację aby zacząć odmierzać czas,,--<--,0,1,1,0,,,,,0,56,56,45,,,,,,,,,,,,,,,,,,,,,949.8924629759280,949.8924629759280,left,0,0.428828835953027,,,,,,12,20,K,N,2023-01-05_11h18.04.044,Flanker,2022.2.4,None,
Przez najbliższe 5 minut proszę kolorować otrzymaną kolorwankę z mandalą. Naciśnij spację aby zacząć odmierzać czas,,--<--,0,1,1,0,,,,,0,57,57,43,,,,,,,,,,,,,,,,,,,,,951.3318932089020,951.3318932089020,left,0,0.4084925970528280,,,,,,12,20,K,N,2023-01-05_11h18.04.044,Flanker,2022.2.4,None,
Przez najbliższe 5 minut proszę kolorować otrzymaną kolorwankę z mandalą. Naciśnij spację aby zacząć odmierzać czas,,<<<<<,0,1,1,0,,,,,0,58,58,19,,,,,,,,,,,,,,,,,,,,,952.7529014139440,952.7529014139440,left,0,0.488346621976234,,,,,,12,20,K,N,2023-01-05_11h18.04.044,Flanker,2022.2.4,None,
Przez najbliższe 5 minut proszę kolorować otrzymaną kolorwankę z mandalą. Naciśnij spację aby zacząć odmierzać czas,,>><>>,0,1,1,0,,,,,0,59,59,33,,,,,,,,,,,,,,,,,,,,,954.25271917996,954.25271917996,left,0,0.622453990043141,,,,,,12,20,K,N,2023-01-05_11h18.04.044,Flanker,2022.2.4,None,
Przez najbliższe 5 minut proszę kolorować otrzymaną kolorwankę z mandalą. Naciśnij spację aby zacząć odmierzać czas,,,0,1,1,0,,,,,,,,,,,,,,,,,,,,,,,,,,,,,,,,,,,,,,,12,20,K,N,2023-01-05_11h18.04.044,Flanker,2022.2.4,None,
,,,,,,,,,,,,,,,,,,,,,,,,,,,,,,,,,,,,,,,,,955.8829587299840,955.8829587299840,space,2.916016248986130,12,20,K,N,2023-01-05_11h18.04.044,Flanker,2022.2.4,None,