kolorowanka,Example,Stimuli,proby.thisRepN,proby.thisTrialN,proby.thisN,proby.thisIndex,zapoznanie.thisRepN,zapoznanie.thisTrialN,zapoznanie.thisN,zapoznanie.thisIndex,Warunki.thisRepN,Warunki.thisTrialN,Warunki.thisN,Warunki.thisIndex,Intro.started,Intro_resp.started,Intro_resp.keys,Intro_resp.rt,Kolorowanie1.started,starttt.started,starttt.keys,starttt.rt,koloruj.started,Instruction.started,key_resp.started,key_resp.keys,key_resp.rt,Wyjasnienie.started,text.started,odp_przyk.started,odp_przyk.keys,odp_przyk.corr,odp_przyk.rt,zapo.started,Zadanie.started,Odp.started,Odp.keys,Odp.corr,Odp.rt,zapo.stopped,thanks.started,KONIEC.started,KONIEC.keys,KONIEC.rt,participant,Wiek (w latach),Płeć (K/M),Entropia,date,expName,psychopyVersion,frameRate,
,,,,,,,,,,,,,,,33.31451139796990,35.28979494806850,space,19.756826356984700,,,,,,,,,,,,,,,,,,,,,,,,,,,13,20,K,N,2023-01-05_11h35.24.714,Flanker,2022.2.4,None,
Przez najbliższe 5 minut proszę kolorować otrzymaną pustą kartkę. Naciśnij spację aby zacząć odmierzać czas,<<<<<,,0,0,0,1,0,0,0,0,,,,,,,,,55.107791280024700,56.06454280600880,space,8.561594508006240,64.64179373101800,364.63954376999800,366.638829797972,space,24.799694017041500,391.5138747500020,400.49981626006800,400.49981626006800,left,0,0.4937548820162190,,,,,,,,,,,,13,20,K,N,2023-01-05_11h35.24.714,Flanker,2022.2.4,None,
Przez najbliższe 5 minut proszę kolorować otrzymaną pustą kartkę. Naciśnij spację aby zacząć odmierzać czas,>><>>,,0,0,0,1,0,1,1,3,,,,,,,,,,,,,,,,,,,402.0606662420320,402.0606662420320,right,0,0.3757630829932170,,,,,,,,,,,,13,20,K,N,2023-01-05_11h35.24.714,Flanker,2022.2.4,None,
Przez najbliższe 5 minut proszę kolorować otrzymaną pustą kartkę. Naciśnij spację aby zacząć odmierzać czas,--<--,,0,0,0,1,0,2,2,4,,,,,,,,,,,,,,,,,,,403.4473905810160,403.4473905810160,left,0,1.4247446689987600,,,,,,,,,,,,13,20,K,N,2023-01-05_11h35.24.714,Flanker,2022.2.4,None,
Przez najbliższe 5 minut proszę kolorować otrzymaną pustą kartkę. Naciśnij spację aby zacząć odmierzać czas,<<><<,,0,0,0,1,0,3,3,2,,,,,,,,,,,,,,,,,,,405.8874529500030,405.8874529500030,right,0,1.0738011040957600,,,,,,,,,,,,13,20,K,N,2023-01-05_11h35.24.714,Flanker,2022.2.4,None,
Przez najbliższe 5 minut proszę kolorować otrzymaną pustą kartkę. Naciśnij spację aby zacząć odmierzać czas,-->--,,0,0,0,1,0,4,4,5,,,,,,,,,,,,,,,,,,,407.9663802490100,407.9663802490100,right,0,0.5837991209700700,,,,,,,,,,,,13,20,K,N,2023-01-05_11h35.24.714,Flanker,2022.2.4,None,
Przez najbliższe 5 minut proszę kolorować otrzymaną pustą kartkę. Naciśnij spację aby zacząć odmierzać czas,>>>>>,,0,0,0,1,0,5,5,1,,,,,,,,,,,,,,,,,,,409.55636271403600,409.55636271403600,right,0,0.5037457100115720,,,,,,,,,,,,13,20,K,N,2023-01-05_11h35.24.714,Flanker,2022.2.4,None,
Przez najbliższe 5 minut proszę kolorować otrzymaną pustą kartkę. Naciśnij spację aby zacząć odmierzać czas,,<<><<,0,0,0,1,,,,,0,0,0,25,,,,,,,,,,,,,,,,,,,,411.0751887729860,419.07174025906700,419.07174025906700,right,0,0.6348186930408700,,,,,,13,20,K,N,2023-01-05_11h35.24.714,Flanker,2022.2.4,None,
Przez najbliższe 5 minut proszę kolorować otrzymaną pustą kartkę. Naciśnij spację aby zacząć odmierzać czas,,--<--,0,0,0,1,,,,,0,1,1,48,,,,,,,,,,,,,,,,,,,,,420.72400405304500,420.72400405304500,left,0,0.2793496809899810,,,,,,13,20,K,N,2023-01-05_11h35.24.714,Flanker,2022.2.4,None,
Przez najbliższe 5 minut proszę kolorować otrzymaną pustą kartkę. Naciśnij spację aby zacząć odmierzać czas,,>><>>,0,0,0,1,,,,,0,2,2,36,,,,,,,,,,,,,,,,,,,,,422.012820707052,422.012820707052,right,0,0.3385370869655160,,,,,,13,20,K,N,2023-01-05_11h35.24.714,Flanker,2022.2.4,None,
Przez najbliższe 5 minut proszę kolorować otrzymaną pustą kartkę. Naciśnij spację aby zacząć odmierzać czas,,<<<<<,0,0,0,1,,,,,0,3,3,15,,,,,,,,,,,,,,,,,,,,,423.3716814069780,423.3716814069780,left,0,0.37642842903733300,,,,,,13,20,K,N,2023-01-05_11h35.24.714,Flanker,2022.2.4,None,
Przez najbliższe 5 minut proszę kolorować otrzymaną pustą kartkę. Naciśnij spację aby zacząć odmierzać czas,,<<<<<,0,0,0,1,,,,,0,4,4,18,,,,,,,,,,,,,,,,,,,,,424.7644271319730,424.7644271319730,left,0,0.3488526149885730,,,,,,13,20,K,N,2023-01-05_11h35.24.714,Flanker,2022.2.4,None,
Przez najbliższe 5 minut proszę kolorować otrzymaną pustą kartkę. Naciśnij spację aby zacząć odmierzać czas,,<<<<<,0,0,0,1,,,,,0,5,5,14,,,,,,,,,,,,,,,,,,,,,426.12308350903900,426.12308350903900,left,0,0.3279905429808420,,,,,,13,20,K,N,2023-01-05_11h35.24.714,Flanker,2022.2.4,None,
Przez najbliższe 5 minut proszę kolorować otrzymaną pustą kartkę. Naciśnij spację aby zacząć odmierzać czas,,-->--,0,0,0,1,,,,,0,6,6,51,,,,,,,,,,,,,,,,,,,,,427.46137256303300,427.46137256303300,right,0,0.37781021604314400,,,,,,13,20,K,N,2023-01-05_11h35.24.714,Flanker,2022.2.4,None,
Przez najbliższe 5 minut proszę kolorować otrzymaną pustą kartkę. Naciśnij spację aby zacząć odmierzać czas,,--<--,0,0,0,1,,,,,0,7,7,44,,,,,,,,,,,,,,,,,,,,,428.8493308600740,428.8493308600740,left,0,0.46965527604334100,,,,,,13,20,K,N,2023-01-05_11h35.24.714,Flanker,2022.2.4,None,
Przez najbliższe 5 minut proszę kolorować otrzymaną pustą kartkę. Naciśnij spację aby zacząć odmierzać czas,,>>>>>,0,0,0,1,,,,,0,8,8,2,,,,,,,,,,,,,,,,,,,,,430.3477373489880,430.3477373489880,right,0,0.2883909329539170,,,,,,13,20,K,N,2023-01-05_11h35.24.714,Flanker,2022.2.4,None,
Przez najbliższe 5 minut proszę kolorować otrzymaną pustą kartkę. Naciśnij spację aby zacząć odmierzać czas,,<<><<,0,0,0,1,,,,,0,9,9,23,,,,,,,,,,,,,,,,,,,,,431.6653853249740,431.6653853249740,left,0,0.33157955203205300,,,,,,13,20,K,N,2023-01-05_11h35.24.714,Flanker,2022.2.4,None,
Przez najbliższe 5 minut proszę kolorować otrzymaną pustą kartkę. Naciśnij spację aby zacząć odmierzać czas,,<<><<,0,0,0,1,,,,,0,10,10,20,,,,,,,,,,,,,,,,,,,,,433.01208471506800,433.01208471506800,right,0,0.4619809719733890,,,,,,13,20,K,N,2023-01-05_11h35.24.714,Flanker,2022.2.4,None,
Przez najbliższe 5 minut proszę kolorować otrzymaną pustą kartkę. Naciśnij spację aby zacząć odmierzać czas,,>>>>>,0,0,0,1,,,,,0,11,11,3,,,,,,,,,,,,,,,,,,,,,434.48279990896100,434.48279990896100,right,0,0.35115126392338400,,,,,,13,20,K,N,2023-01-05_11h35.24.714,Flanker,2022.2.4,None,
Przez najbliższe 5 minut proszę kolorować otrzymaną pustą kartkę. Naciśnij spację aby zacząć odmierzać czas,,<<<<<,0,0,0,1,,,,,0,12,12,12,,,,,,,,,,,,,,,,,,,,,435.8458966909680,435.8458966909680,left,0,0.40716850699391200,,,,,,13,20,K,N,2023-01-05_11h35.24.714,Flanker,2022.2.4,None,
Przez najbliższe 5 minut proszę kolorować otrzymaną pustą kartkę. Naciśnij spację aby zacząć odmierzać czas,,--<--,0,0,0,1,,,,,0,13,13,40,,,,,,,,,,,,,,,,,,,,,437.2593592390190,437.2593592390190,left,0,0.32951645902358000,,,,,,13,20,K,N,2023-01-05_11h35.24.714,Flanker,2022.2.4,None,
Przez najbliższe 5 minut proszę kolorować otrzymaną pustą kartkę. Naciśnij spację aby zacząć odmierzać czas,,-->--,0,0,0,1,,,,,0,14,14,57,,,,,,,,,,,,,,,,,,,,,438.612161291996,438.612161291996,right,0,0.34376807196531400,,,,,,13,20,K,N,2023-01-05_11h35.24.714,Flanker,2022.2.4,None,
Przez najbliższe 5 minut proszę kolorować otrzymaną pustą kartkę. Naciśnij spację aby zacząć odmierzać czas,,--<--,0,0,0,1,,,,,0,15,15,47,,,,,,,,,,,,,,,,,,,,,439.95386916399,439.95386916399,left,0,0.36182445299346,,,,,,13,20,K,N,2023-01-05_11h35.24.714,Flanker,2022.2.4,None,
Przez najbliższe 5 minut proszę kolorować otrzymaną pustą kartkę. Naciśnij spację aby zacząć odmierzać czas,,-->--,0,0,0,1,,,,,0,16,16,59,,,,,,,,,,,,,,,,,,,,,441.33671477099400,441.33671477099400,right,0,0.3290220230119300,,,,,,13,20,K,N,2023-01-05_11h35.24.714,Flanker,2022.2.4,None,
Przez najbliższe 5 minut proszę kolorować otrzymaną pustą kartkę. Naciśnij spację aby zacząć odmierzać czas,,>>>>>,0,0,0,1,,,,,0,17,17,6,,,,,,,,,,,,,,,,,,,,,442.6779149470390,442.6779149470390,right,0,0.31480937998276200,,,,,,13,20,K,N,2023-01-05_11h35.24.714,Flanker,2022.2.4,None,
Przez najbliższe 5 minut proszę kolorować otrzymaną pustą kartkę. Naciśnij spację aby zacząć odmierzać czas,,>>>>> ,0,0,0,1,,,,,0,18,18,5,,,,,,,,,,,,,,,,,,,,,444.0152364230020,444.0152364230020,right,0,0.3517523540649560,,,,,,13,20,K,N,2023-01-05_11h35.24.714,Flanker,2022.2.4,None,
Przez najbliższe 5 minut proszę kolorować otrzymaną pustą kartkę. Naciśnij spację aby zacząć odmierzać czas,,<<<<<,0,0,0,1,,,,,0,19,19,11,,,,,,,,,,,,,,,,,,,,,445.3800436509770,445.3800436509770,left,0,0.5107746149878950,,,,,,13,20,K,N,2023-01-05_11h35.24.714,Flanker,2022.2.4,None,
Przez najbliższe 5 minut proszę kolorować otrzymaną pustą kartkę. Naciśnij spację aby zacząć odmierzać czas,,>><>>,0,0,0,1,,,,,0,20,20,30,,,,,,,,,,,,,,,,,,,,,446.9000975099630,446.9000975099630,right,0,0.32773940300103300,,,,,,13,20,K,N,2023-01-05_11h35.24.714,Flanker,2022.2.4,None,
Przez najbliższe 5 minut proszę kolorować otrzymaną pustą kartkę. Naciśnij spację aby zacząć odmierzać czas,,<<><<,0,0,0,1,,,,,0,21,21,28,,,,,,,,,,,,,,,,,,,,,448.2472561550090,448.2472561550090,right,0,0.5415486040292310,,,,,,13,20,K,N,2023-01-05_11h35.24.714,Flanker,2022.2.4,None,
Przez najbliższe 5 minut proszę kolorować otrzymaną pustą kartkę. Naciśnij spację aby zacząć odmierzać czas,,>><>>,0,0,0,1,,,,,0,22,22,38,,,,,,,,,,,,,,,,,,,,,449.7882249880350,449.7882249880350,left,0,0.4235351620009170,,,,,,13,20,K,N,2023-01-05_11h35.24.714,Flanker,2022.2.4,None,
Przez najbliższe 5 minut proszę kolorować otrzymaną pustą kartkę. Naciśnij spację aby zacząć odmierzać czas,,>><>>,0,0,0,1,,,,,0,23,23,35,,,,,,,,,,,,,,,,,,,,,451.2166163820080,451.2166163820080,right,0,0.3382332209730520,,,,,,13,20,K,N,2023-01-05_11h35.24.714,Flanker,2022.2.4,None,
Przez najbliższe 5 minut proszę kolorować otrzymaną pustą kartkę. Naciśnij spację aby zacząć odmierzać czas,,--<--,0,0,0,1,,,,,0,24,24,42,,,,,,,,,,,,,,,,,,,,,452.57822747307400,452.57822747307400,left,0,0.3825043140677740,,,,,,13,20,K,N,2023-01-05_11h35.24.714,Flanker,2022.2.4,None,
Przez najbliższe 5 minut proszę kolorować otrzymaną pustą kartkę. Naciśnij spację aby zacząć odmierzać czas,,--<--,0,0,0,1,,,,,0,25,25,41,,,,,,,,,,,,,,,,,,,,,453.9646058350340,453.9646058350340,left,0,0.35705533099826400,,,,,,13,20,K,N,2023-01-05_11h35.24.714,Flanker,2022.2.4,None,
Przez najbliższe 5 minut proszę kolorować otrzymaną pustą kartkę. Naciśnij spację aby zacząć odmierzać czas,,>><>>,0,0,0,1,,,,,0,26,26,32,,,,,,,,,,,,,,,,,,,,,455.3371488250560,455.3371488250560,left,0,0.4304908699123190,,,,,,13,20,K,N,2023-01-05_11h35.24.714,Flanker,2022.2.4,None,
Przez najbliższe 5 minut proszę kolorować otrzymaną pustą kartkę. Naciśnij spację aby zacząć odmierzać czas,,-->--,0,0,0,1,,,,,0,27,27,56,,,,,,,,,,,,,,,,,,,,,456.78360795404300,456.78360795404300,right,0,0.4178186230128630,,,,,,13,20,K,N,2023-01-05_11h35.24.714,Flanker,2022.2.4,None,
Przez najbliższe 5 minut proszę kolorować otrzymaną pustą kartkę. Naciśnij spację aby zacząć odmierzać czas,,>><>>,0,0,0,1,,,,,0,28,28,37,,,,,,,,,,,,,,,,,,,,,458.22210331400900,458.22210331400900,left,0,0.4534575950820000,,,,,,13,20,K,N,2023-01-05_11h35.24.714,Flanker,2022.2.4,None,
Przez najbliższe 5 minut proszę kolorować otrzymaną pustą kartkę. Naciśnij spację aby zacząć odmierzać czas,,<<<<<,0,0,0,1,,,,,0,29,29,16,,,,,,,,,,,,,,,,,,,,,459.68229301902500,459.68229301902500,left,0,0.36521000298671400,,,,,,13,20,K,N,2023-01-05_11h35.24.714,Flanker,2022.2.4,None,
Przez najbliższe 5 minut proszę kolorować otrzymaną pustą kartkę. Naciśnij spację aby zacząć odmierzać czas,,>><>>,0,0,0,1,,,,,0,30,30,33,,,,,,,,,,,,,,,,,,,,,461.0534320640150,461.0534320640150,left,0,0.48992402700241700,,,,,,13,20,K,N,2023-01-05_11h35.24.714,Flanker,2022.2.4,None,
Przez najbliższe 5 minut proszę kolorować otrzymaną pustą kartkę. Naciśnij spację aby zacząć odmierzać czas,,-->--,0,0,0,1,,,,,0,31,31,50,,,,,,,,,,,,,,,,,,,,,462.5612311309670,462.5612311309670,right,0,0.40321939100977000,,,,,,13,20,K,N,2023-01-05_11h35.24.714,Flanker,2022.2.4,None,
Przez najbliższe 5 minut proszę kolorować otrzymaną pustą kartkę. Naciśnij spację aby zacząć odmierzać czas,,>>>>>,0,0,0,1,,,,,0,32,32,4,,,,,,,,,,,,,,,,,,,,,463.96677004301500,463.96677004301500,right,0,0.4156370129203420,,,,,,13,20,K,N,2023-01-05_11h35.24.714,Flanker,2022.2.4,None,
Przez najbliższe 5 minut proszę kolorować otrzymaną pustą kartkę. Naciśnij spację aby zacząć odmierzać czas,,-->--,0,0,0,1,,,,,0,33,33,54,,,,,,,,,,,,,,,,,,,,,465.39655060798400,465.39655060798400,right,0,0.5319276399677620,,,,,,13,20,K,N,2023-01-05_11h35.24.714,Flanker,2022.2.4,None,
Przez najbliższe 5 minut proszę kolorować otrzymaną pustą kartkę. Naciśnij spację aby zacząć odmierzać czas,,<<><<,0,0,0,1,,,,,0,34,34,27,,,,,,,,,,,,,,,,,,,,,466.9430016260590,466.9430016260590,right,0,0.5324146479833870,,,,,,13,20,K,N,2023-01-05_11h35.24.714,Flanker,2022.2.4,None,
Przez najbliższe 5 minut proszę kolorować otrzymaną pustą kartkę. Naciśnij spację aby zacząć odmierzać czas,,-->--,0,0,0,1,,,,,0,35,35,52,,,,,,,,,,,,,,,,,,,,,468.48648276599100,468.48648276599100,right,0,0.44977586390450600,,,,,,13,20,K,N,2023-01-05_11h35.24.714,Flanker,2022.2.4,None,
Przez najbliższe 5 minut proszę kolorować otrzymaną pustą kartkę. Naciśnij spację aby zacząć odmierzać czas,,>><>>,0,0,0,1,,,,,0,36,36,39,,,,,,,,,,,,,,,,,,,,,469.94622851500800,469.94622851500800,left,0,0.503195071942173,,,,,,13,20,K,N,2023-01-05_11h35.24.714,Flanker,2022.2.4,None,
Przez najbliższe 5 minut proszę kolorować otrzymaną pustą kartkę. Naciśnij spację aby zacząć odmierzać czas,,>>>>>,0,0,0,1,,,,,0,37,37,7,,,,,,,,,,,,,,,,,,,,,471.46097400505100,471.46097400505100,right,0,0.4033825380029160,,,,,,13,20,K,N,2023-01-05_11h35.24.714,Flanker,2022.2.4,None,
Przez najbliższe 5 minut proszę kolorować otrzymaną pustą kartkę. Naciśnij spację aby zacząć odmierzać czas,,<<><<,0,0,0,1,,,,,0,38,38,24,,,,,,,,,,,,,,,,,,,,,472.877194760018,472.877194760018,right,0,0.4430313389748340,,,,,,13,20,K,N,2023-01-05_11h35.24.714,Flanker,2022.2.4,None,
Przez najbliższe 5 minut proszę kolorować otrzymaną pustą kartkę. Naciśnij spację aby zacząć odmierzać czas,,-->--,0,0,0,1,,,,,0,39,39,55,,,,,,,,,,,,,,,,,,,,,474.32598769199100,474.32598769199100,right,0,0.5852351740468290,,,,,,13,20,K,N,2023-01-05_11h35.24.714,Flanker,2022.2.4,None,
Przez najbliższe 5 minut proszę kolorować otrzymaną pustą kartkę. Naciśnij spację aby zacząć odmierzać czas,,<<<<<,0,0,0,1,,,,,0,40,40,10,,,,,,,,,,,,,,,,,,,,,475.9174340600150,475.9174340600150,left,0,0.4667182939592750,,,,,,13,20,K,N,2023-01-05_11h35.24.714,Flanker,2022.2.4,None,
Przez najbliższe 5 minut proszę kolorować otrzymaną pustą kartkę. Naciśnij spację aby zacząć odmierzać czas,,<<<<<,0,0,0,1,,,,,0,41,41,17,,,,,,,,,,,,,,,,,,,,,477.38727719697600,477.38727719697600,left,0,0.3188924139831220,,,,,,13,20,K,N,2023-01-05_11h35.24.714,Flanker,2022.2.4,None,
Przez najbliższe 5 minut proszę kolorować otrzymaną pustą kartkę. Naciśnij spację aby zacząć odmierzać czas,,<<><<,0,0,0,1,,,,,0,42,42,26,,,,,,,,,,,,,,,,,,,,,478.7131233420220,478.7131233420220,right,0,0.5300405489979310,,,,,,13,20,K,N,2023-01-05_11h35.24.714,Flanker,2022.2.4,None,
Przez najbliższe 5 minut proszę kolorować otrzymaną pustą kartkę. Naciśnij spację aby zacząć odmierzać czas,,>><>>,0,0,0,1,,,,,0,43,43,31,,,,,,,,,,,,,,,,,,,,,480.25408433703700,480.25408433703700,left,0,0.435064860037528,,,,,,13,20,K,N,2023-01-05_11h35.24.714,Flanker,2022.2.4,None,
Przez najbliższe 5 minut proszę kolorować otrzymaną pustą kartkę. Naciśnij spację aby zacząć odmierzać czas,,-->--,0,0,0,1,,,,,0,44,44,58,,,,,,,,,,,,,,,,,,,,,481.704263748019,481.704263748019,right,0,0.4158096699975430,,,,,,13,20,K,N,2023-01-05_11h35.24.714,Flanker,2022.2.4,None,
Przez najbliższe 5 minut proszę kolorować otrzymaną pustą kartkę. Naciśnij spację aby zacząć odmierzać czas,,<<><<,0,0,0,1,,,,,0,45,45,22,,,,,,,,,,,,,,,,,,,,,483.13646987697600,483.13646987697600,right,0,0.5395133219426500,,,,,,13,20,K,N,2023-01-05_11h35.24.714,Flanker,2022.2.4,None,
Przez najbliższe 5 minut proszę kolorować otrzymaną pustą kartkę. Naciśnij spację aby zacząć odmierzać czas,,>>>>>,0,0,0,1,,,,,0,46,46,0,,,,,,,,,,,,,,,,,,,,,484.6866774240040,484.6866774240040,right,0,0.3892502119997520,,,,,,13,20,K,N,2023-01-05_11h35.24.714,Flanker,2022.2.4,None,
Przez najbliższe 5 minut proszę kolorować otrzymaną pustą kartkę. Naciśnij spację aby zacząć odmierzać czas,,>>>>>,0,0,0,1,,,,,0,47,47,8,,,,,,,,,,,,,,,,,,,,,486.0969025410010,486.0969025410010,right,0,0.39606864494271600,,,,,,13,20,K,N,2023-01-05_11h35.24.714,Flanker,2022.2.4,None,
Przez najbliższe 5 minut proszę kolorować otrzymaną pustą kartkę. Naciśnij spację aby zacząć odmierzać czas,,<<<<<,0,0,0,1,,,,,0,48,48,19,,,,,,,,,,,,,,,,,,,,,487.4962636480340,487.4962636480340,left,0,0.3856900850078090,,,,,,13,20,K,N,2023-01-05_11h35.24.714,Flanker,2022.2.4,None,
Przez najbliższe 5 minut proszę kolorować otrzymaną pustą kartkę. Naciśnij spację aby zacząć odmierzać czas,,--<--,0,0,0,1,,,,,0,49,49,43,,,,,,,,,,,,,,,,,,,,,488.88620167505000,488.88620167505000,left,0,0.3665640370454640,,,,,,13,20,K,N,2023-01-05_11h35.24.714,Flanker,2022.2.4,None,
Przez najbliższe 5 minut proszę kolorować otrzymaną pustą kartkę. Naciśnij spację aby zacząć odmierzać czas,,--<--,0,0,0,1,,,,,0,50,50,46,,,,,,,,,,,,,,,,,,,,,490.2703114290490,490.2703114290490,left,0,0.3675107000162830,,,,,,13,20,K,N,2023-01-05_11h35.24.714,Flanker,2022.2.4,None,
Przez najbliższe 5 minut proszę kolorować otrzymaną pustą kartkę. Naciśnij spację aby zacząć odmierzać czas,,<<><<,0,0,0,1,,,,,0,51,51,29,,,,,,,,,,,,,,,,,,,,,491.64825899899000,491.64825899899000,right,0,0.42351837700698500,,,,,,13,20,K,N,2023-01-05_11h35.24.714,Flanker,2022.2.4,None,
Przez najbliższe 5 minut proszę kolorować otrzymaną pustą kartkę. Naciśnij spację aby zacząć odmierzać czas,,--<--,0,0,0,1,,,,,0,52,52,45,,,,,,,,,,,,,,,,,,,,,493.0946278600020,493.0946278600020,left,0,0.36617371696047500,,,,,,13,20,K,N,2023-01-05_11h35.24.714,Flanker,2022.2.4,None,
Przez najbliższe 5 minut proszę kolorować otrzymaną pustą kartkę. Naciśnij spację aby zacząć odmierzać czas,,-->--,0,0,0,1,,,,,0,53,53,53,,,,,,,,,,,,,,,,,,,,,494.47574654896700,494.47574654896700,right,0,0.576130855944939,,,,,,13,20,K,N,2023-01-05_11h35.24.714,Flanker,2022.2.4,None,
Przez najbliższe 5 minut proszę kolorować otrzymaną pustą kartkę. Naciśnij spację aby zacząć odmierzać czas,,--<--,0,0,0,1,,,,,0,54,54,49,,,,,,,,,,,,,,,,,,,,,496.0692372539780,496.0692372539780,left,0,0.6494626220082860,,,,,,13,20,K,N,2023-01-05_11h35.24.714,Flanker,2022.2.4,None,
Przez najbliższe 5 minut proszę kolorować otrzymaną pustą kartkę. Naciśnij spację aby zacząć odmierzać czas,,<<<<<,0,0,0,1,,,,,0,55,55,13,,,,,,,,,,,,,,,,,,,,,497.72922158404300,497.72922158404300,left,0,0.42156923306174600,,,,,,13,20,K,N,2023-01-05_11h35.24.714,Flanker,2022.2.4,None,
Przez najbliższe 5 minut proszę kolorować otrzymaną pustą kartkę. Naciśnij spację aby zacząć odmierzać czas,,>><>>,0,0,0,1,,,,,0,56,56,34,,,,,,,,,,,,,,,,,,,,,499.1609859720340,499.1609859720340,left,0,0.5717346529709180,,,,,,13,20,K,N,2023-01-05_11h35.24.714,Flanker,2022.2.4,None,
Przez najbliższe 5 minut proszę kolorować otrzymaną pustą kartkę. Naciśnij spację aby zacząć odmierzać czas,,<<><<,0,0,0,1,,,,,0,57,57,21,,,,,,,,,,,,,,,,,,,,,500.7423685330430,500.7423685330430,right,0,0.45231704600155400,,,,,,13,20,K,N,2023-01-05_11h35.24.714,Flanker,2022.2.4,None,
Przez najbliższe 5 minut proszę kolorować otrzymaną pustą kartkę. Naciśnij spację aby zacząć odmierzać czas,,>>>>>,0,0,0,1,,,,,0,58,58,1,,,,,,,,,,,,,,,,,,,,,502.2051208249760,502.2051208249760,right,0,0.39753760397434200,,,,,,13,20,K,N,2023-01-05_11h35.24.714,Flanker,2022.2.4,None,
Przez najbliższe 5 minut proszę kolorować otrzymaną pustą kartkę. Naciśnij spację aby zacząć odmierzać czas,,>>>>>,0,0,0,1,,,,,0,59,59,9,,,,,,,,,,,,,,,,,,,,,503.61510077596200,503.61510077596200,right,0,0.3765220169443640,,,,,,13,20,K,N,2023-01-05_11h35.24.714,Flanker,2022.2.4,None,
Przez najbliższe 5 minut proszę kolorować otrzymaną pustą kartkę. Naciśnij spację aby zacząć odmierzać czas,,,0,0,0,1,,,,,,,,,,,,,,,,,,,,,,,,,,,,,,,,,,,,,,,13,20,K,N,2023-01-05_11h35.24.714,Flanker,2022.2.4,None,
Przez najbliższe 5 minut proszę kolorować otrzymaną kolorwankę z mandalą. Naciśnij spację aby zacząć odmierzać czas,<<><<,,0,1,1,0,0,0,0,2,,,,,,,,,504.0336976220130,504.9959256480220,space,5.729240506072530,510.75322562106900,810.7572976360100,812.7394828950060,space,16.402470434899400,829.1726434460140,838.1694288899890,838.1694288899890,right,0,0.6088560649659490,,,,,,,,,,,,13,20,K,N,2023-01-05_11h35.24.714,Flanker,2022.2.4,None,
Przez najbliższe 5 minut proszę kolorować otrzymaną kolorwankę z mandalą. Naciśnij spację aby zacząć odmierzać czas,>><>>,,0,1,1,0,0,1,1,3,,,,,,,,,,,,,,,,,,,839.7915474500040,839.7915474500040,left,0,0.5145868269028140,,,,,,,,,,,,13,20,K,N,2023-01-05_11h35.24.714,Flanker,2022.2.4,None,
Przez najbliższe 5 minut proszę kolorować otrzymaną kolorwankę z mandalą. Naciśnij spację aby zacząć odmierzać czas,--<--,,0,1,1,0,0,2,2,4,,,,,,,,,,,,,,,,,,,841.3098791850500,841.3098791850500,left,0,0.3513047960586850,,,,,,,,,,,,13,20,K,N,2023-01-05_11h35.24.714,Flanker,2022.2.4,None,
Przez najbliższe 5 minut proszę kolorować otrzymaną kolorwankę z mandalą. Naciśnij spację aby zacząć odmierzać czas,>>>>>,,0,1,1,0,0,3,3,1,,,,,,,,,,,,,,,,,,,842.6746180880580,842.6746180880580,right,0,0.3916068759281190,,,,,,,,,,,,13,20,K,N,2023-01-05_11h35.24.714,Flanker,2022.2.4,None,
Przez najbliższe 5 minut proszę kolorować otrzymaną kolorwankę z mandalą. Naciśnij spację aby zacząć odmierzać czas,-->--,,0,1,1,0,0,4,4,5,,,,,,,,,,,,,,,,,,,844.0711005850460,844.0711005850460,right,0,0.30989712197333600,,,,,,,,,,,,13,20,K,N,2023-01-05_11h35.24.714,Flanker,2022.2.4,None,
Przez najbliższe 5 minut proszę kolorować otrzymaną kolorwankę z mandalą. Naciśnij spację aby zacząć odmierzać czas,<<<<<,,0,1,1,0,0,5,5,0,,,,,,,,,,,,,,,,,,,845.3935921810340,845.3935921810340,left,0,0.3514538649469610,,,,,,,,,,,,13,20,K,N,2023-01-05_11h35.24.714,Flanker,2022.2.4,None,
Przez najbliższe 5 minut proszę kolorować otrzymaną kolorwankę z mandalą. Naciśnij spację aby zacząć odmierzać czas,,<<><<,0,1,1,0,,,,,0,0,0,26,,,,,,,,,,,,,,,,,,,,846.7544930400330,854.7547706359770,854.7547706359770,right,0,0.45490293903276300,853.770946047036,,,,,13,20,K,N,2023-01-05_11h35.24.714,Flanker,2022.2.4,None,
Przez najbliższe 5 minut proszę kolorować otrzymaną kolorwankę z mandalą. Naciśnij spację aby zacząć odmierzać czas,,>>>>>,0,1,1,0,,,,,0,1,1,4,,,,,,,,,,,,,,,,,,,,,856.2211505300370,856.2211505300370,right,0,0.3435255690710620,,,,,,13,20,K,N,2023-01-05_11h35.24.714,Flanker,2022.2.4,None,
Przez najbliższe 5 minut proszę kolorować otrzymaną kolorwankę z mandalą. Naciśnij spację aby zacząć odmierzać czas,,>><>>,0,1,1,0,,,,,0,2,2,30,,,,,,,,,,,,,,,,,,,,,857.5745050050320,857.5745050050320,left,0,0.4551885920809580,,,,,,13,20,K,N,2023-01-05_11h35.24.714,Flanker,2022.2.4,None,
Przez najbliższe 5 minut proszę kolorować otrzymaną kolorwankę z mandalą. Naciśnij spację aby zacząć odmierzać czas,,--<--,0,1,1,0,,,,,0,3,3,48,,,,,,,,,,,,,,,,,,,,,859.0379851750330,859.0379851750330,left,0,0.365571909933351,,,,,,13,20,K,N,2023-01-05_11h35.24.714,Flanker,2022.2.4,None,
Przez najbliższe 5 minut proszę kolorować otrzymaną kolorwankę z mandalą. Naciśnij spację aby zacząć odmierzać czas,,>><>>,0,1,1,0,,,,,0,4,4,37,,,,,,,,,,,,,,,,,,,,,860.409278952051,860.409278952051,left,0,0.512211880995892,,,,,,13,20,K,N,2023-01-05_11h35.24.714,Flanker,2022.2.4,None,
Przez najbliższe 5 minut proszę kolorować otrzymaną kolorwankę z mandalą. Naciśnij spację aby zacząć odmierzać czas,,--<--,0,1,1,0,,,,,0,5,5,45,,,,,,,,,,,,,,,,,,,,,861.924059735029,861.924059735029,left,0,0.33250343904364900,,,,,,13,20,K,N,2023-01-05_11h35.24.714,Flanker,2022.2.4,None,
Przez najbliższe 5 minut proszę kolorować otrzymaną kolorwankę z mandalą. Naciśnij spację aby zacząć odmierzać czas,,<<><<,0,1,1,0,,,,,0,6,6,29,,,,,,,,,,,,,,,,,,,,,863.2611453160640,863.2611453160640,right,0,0.5123910210095350,,,,,,13,20,K,N,2023-01-05_11h35.24.714,Flanker,2022.2.4,None,
Przez najbliższe 5 minut proszę kolorować otrzymaną kolorwankę z mandalą. Naciśnij spację aby zacząć odmierzać czas,,-->--,0,1,1,0,,,,,0,7,7,57,,,,,,,,,,,,,,,,,,,,,864.7772561489840,864.7772561489840,right,0,0.3291755620157350,,,,,,13,20,K,N,2023-01-05_11h35.24.714,Flanker,2022.2.4,None,
Przez najbliższe 5 minut proszę kolorować otrzymaną kolorwankę z mandalą. Naciśnij spację aby zacząć odmierzać czas,,<<<<<,0,1,1,0,,,,,0,8,8,12,,,,,,,,,,,,,,,,,,,,,866.1047742459920,866.1047742459920,left,0,0.33382042101584400,,,,,,13,20,K,N,2023-01-05_11h35.24.714,Flanker,2022.2.4,None,
Przez najbliższe 5 minut proszę kolorować otrzymaną kolorwankę z mandalą. Naciśnij spację aby zacząć odmierzać czas,,<<><<,0,1,1,0,,,,,0,9,9,27,,,,,,,,,,,,,,,,,,,,,867.4440182789700,867.4440182789700,right,0,0.41743708797730500,,,,,,13,20,K,N,2023-01-05_11h35.24.714,Flanker,2022.2.4,None,
Przez najbliższe 5 minut proszę kolorować otrzymaną kolorwankę z mandalą. Naciśnij spację aby zacząć odmierzać czas,,<<><<,0,1,1,0,,,,,0,10,10,28,,,,,,,,,,,,,,,,,,,,,868.870782656013,868.870782656013,right,0,0.49355392495635900,,,,,,13,20,K,N,2023-01-05_11h35.24.714,Flanker,2022.2.4,None,
Przez najbliższe 5 minut proszę kolorować otrzymaną kolorwankę z mandalą. Naciśnij spację aby zacząć odmierzać czas,,--<--,0,1,1,0,,,,,0,11,11,43,,,,,,,,,,,,,,,,,,,,,870.3707747780720,870.3707747780720,left,0,0.3434938119025900,,,,,,13,20,K,N,2023-01-05_11h35.24.714,Flanker,2022.2.4,None,
Przez najbliższe 5 minut proszę kolorować otrzymaną kolorwankę z mandalą. Naciśnij spację aby zacząć odmierzać czas,,>>>>>,0,1,1,0,,,,,0,12,12,8,,,,,,,,,,,,,,,,,,,,,871.7234967739790,871.7234967739790,right,0,0.41682788892649100,,,,,,13,20,K,N,2023-01-05_11h35.24.714,Flanker,2022.2.4,None,
Przez najbliższe 5 minut proszę kolorować otrzymaną kolorwankę z mandalą. Naciśnij spację aby zacząć odmierzać czas,,>><>>,0,1,1,0,,,,,0,13,13,33,,,,,,,,,,,,,,,,,,,,,873.155561913969,873.155561913969,left,0,0.5137531759683040,,,,,,13,20,K,N,2023-01-05_11h35.24.714,Flanker,2022.2.4,None,
Przez najbliższe 5 minut proszę kolorować otrzymaną kolorwankę z mandalą. Naciśnij spację aby zacząć odmierzać czas,,<<><<,0,1,1,0,,,,,0,14,14,20,,,,,,,,,,,,,,,,,,,,,874.684113356052,874.684113356052,right,0,0.5011206220369790,,,,,,13,20,K,N,2023-01-05_11h35.24.714,Flanker,2022.2.4,None,
Przez najbliższe 5 minut proszę kolorować otrzymaną kolorwankę z mandalą. Naciśnij spację aby zacząć odmierzać czas,,<<<<<,0,1,1,0,,,,,0,15,15,17,,,,,,,,,,,,,,,,,,,,,876.1977707080080,876.1977707080080,left,0,0.3914976230589670,,,,,,13,20,K,N,2023-01-05_11h35.24.714,Flanker,2022.2.4,None,
Przez najbliższe 5 minut proszę kolorować otrzymaną kolorwankę z mandalą. Naciśnij spację aby zacząć odmierzać czas,,<<<<<,0,1,1,0,,,,,0,16,16,10,,,,,,,,,,,,,,,,,,,,,877.6038874690420,877.6038874690420,left,0,0.3723377900896590,,,,,,13,20,K,N,2023-01-05_11h35.24.714,Flanker,2022.2.4,None,
Przez najbliższe 5 minut proszę kolorować otrzymaną kolorwankę z mandalą. Naciśnij spację aby zacząć odmierzać czas,,<<<<<,0,1,1,0,,,,,0,17,17,13,,,,,,,,,,,,,,,,,,,,,878.9808544550320,878.9808544550320,left,0,0.37425373203586800,,,,,,13,20,K,N,2023-01-05_11h35.24.714,Flanker,2022.2.4,None,
Przez najbliższe 5 minut proszę kolorować otrzymaną kolorwankę z mandalą. Naciśnij spację aby zacząć odmierzać czas,,-->--,0,1,1,0,,,,,0,18,18,53,,,,,,,,,,,,,,,,,,,,,880.359062017058,880.359062017058,right,0,0.3391326470300560,,,,,,13,20,K,N,2023-01-05_11h35.24.714,Flanker,2022.2.4,None,
Przez najbliższe 5 minut proszę kolorować otrzymaną kolorwankę z mandalą. Naciśnij spację aby zacząć odmierzać czas,,>>>>>,0,1,1,0,,,,,0,19,19,3,,,,,,,,,,,,,,,,,,,,,881.710279159015,881.710279159015,right,0,0.350804770947434,,,,,,13,20,K,N,2023-01-05_11h35.24.714,Flanker,2022.2.4,None,
Przez najbliższe 5 minut proszę kolorować otrzymaną kolorwankę z mandalą. Naciśnij spację aby zacząć odmierzać czas,,--<--,0,1,1,0,,,,,0,20,20,46,,,,,,,,,,,,,,,,,,,,,883.0753633349670,883.0753633349670,left,0,0.3947319070575760,,,,,,13,20,K,N,2023-01-05_11h35.24.714,Flanker,2022.2.4,None,
Przez najbliższe 5 minut proszę kolorować otrzymaną kolorwankę z mandalą. Naciśnij spację aby zacząć odmierzać czas,,<<<<<,0,1,1,0,,,,,0,21,21,15,,,,,,,,,,,,,,,,,,,,,884.4854630120100,884.4854630120100,left,0,0.33151436503976600,,,,,,13,20,K,N,2023-01-05_11h35.24.714,Flanker,2022.2.4,None,
Przez najbliższe 5 minut proszę kolorować otrzymaną kolorwankę z mandalą. Naciśnij spację aby zacząć odmierzać czas,,>><>>,0,1,1,0,,,,,0,22,22,31,,,,,,,,,,,,,,,,,,,,,885.8254612750610,885.8254612750610,left,0,0.511497518979013,,,,,,13,20,K,N,2023-01-05_11h35.24.714,Flanker,2022.2.4,None,
Przez najbliższe 5 minut proszę kolorować otrzymaną kolorwankę z mandalą. Naciśnij spację aby zacząć odmierzać czas,,>><>>,0,1,1,0,,,,,0,23,23,35,,,,,,,,,,,,,,,,,,,,,887.3472711379870,887.3472711379870,left,0,0.46071190806105700,,,,,,13,20,K,N,2023-01-05_11h35.24.714,Flanker,2022.2.4,None,
Przez najbliższe 5 minut proszę kolorować otrzymaną kolorwankę z mandalą. Naciśnij spację aby zacząć odmierzać czas,,<<><<,0,1,1,0,,,,,0,24,24,22,,,,,,,,,,,,,,,,,,,,,888.8087564799940,888.8087564799940,right,0,0.4891978499945250,,,,,,13,20,K,N,2023-01-05_11h35.24.714,Flanker,2022.2.4,None,
Przez najbliższe 5 minut proszę kolorować otrzymaną kolorwankę z mandalą. Naciśnij spację aby zacząć odmierzać czas,,<<<<<,0,1,1,0,,,,,0,25,25,14,,,,,,,,,,,,,,,,,,,,,890.3205847069620,890.3205847069620,left,0,0.4603705359622840,,,,,,13,20,K,N,2023-01-05_11h35.24.714,Flanker,2022.2.4,None,
Przez najbliższe 5 minut proszę kolorować otrzymaną kolorwankę z mandalą. Naciśnij spację aby zacząć odmierzać czas,,>><>>,0,1,1,0,,,,,0,26,26,38,,,,,,,,,,,,,,,,,,,,,891.7911047489620,891.7911047489620,left,0,0.5398402159335090,,,,,,13,20,K,N,2023-01-05_11h35.24.714,Flanker,2022.2.4,None,
Przez najbliższe 5 minut proszę kolorować otrzymaną kolorwankę z mandalą. Naciśnij spację aby zacząć odmierzać czas,,<<<<<,0,1,1,0,,,,,0,27,27,11,,,,,,,,,,,,,,,,,,,,,893.3422155299920,893.3422155299920,left,0,0.3826229079859330,,,,,,13,20,K,N,2023-01-05_11h35.24.714,Flanker,2022.2.4,None,
Przez najbliższe 5 minut proszę kolorować otrzymaną kolorwankę z mandalą. Naciśnij spację aby zacząć odmierzać czas,,<<<<<,0,1,1,0,,,,,0,28,28,18,,,,,,,,,,,,,,,,,,,,,894.7305146759610,894.7305146759610,left,0,0.3092610660241920,,,,,,13,20,K,N,2023-01-05_11h35.24.714,Flanker,2022.2.4,None,
Przez najbliższe 5 minut proszę kolorować otrzymaną kolorwankę z mandalą. Naciśnij spację aby zacząć odmierzać czas,,>><>>,0,1,1,0,,,,,0,29,29,36,,,,,,,,,,,,,,,,,,,,,896.0475023949980,896.0475023949980,left,0,0.4573484279681000,,,,,,13,20,K,N,2023-01-05_11h35.24.714,Flanker,2022.2.4,None,
Przez najbliższe 5 minut proszę kolorować otrzymaną kolorwankę z mandalą. Naciśnij spację aby zacząć odmierzać czas,,-->--,0,1,1,0,,,,,0,30,30,56,,,,,,,,,,,,,,,,,,,,,897.5205403430160,897.5205403430160,right,0,0.3992845389293510,,,,,,13,20,K,N,2023-01-05_11h35.24.714,Flanker,2022.2.4,None,
Przez najbliższe 5 minut proszę kolorować otrzymaną kolorwankę z mandalą. Naciśnij spację aby zacząć odmierzać czas,,-->--,0,1,1,0,,,,,0,31,31,55,,,,,,,,,,,,,,,,,,,,,898.9235221389680,898.9235221389680,right,0,0.4621908289846030,,,,,,13,20,K,N,2023-01-05_11h35.24.714,Flanker,2022.2.4,None,
Przez najbliższe 5 minut proszę kolorować otrzymaną kolorwankę z mandalą. Naciśnij spację aby zacząć odmierzać czas,,>>>>>,0,1,1,0,,,,,0,32,32,1,,,,,,,,,,,,,,,,,,,,,900.3905525560260,900.3905525560260,right,0,0.4401675049448390,,,,,,13,20,K,N,2023-01-05_11h35.24.714,Flanker,2022.2.4,None,
Przez najbliższe 5 minut proszę kolorować otrzymaną kolorwankę z mandalą. Naciśnij spację aby zacząć odmierzać czas,,>><>>,0,1,1,0,,,,,0,33,33,32,,,,,,,,,,,,,,,,,,,,,901.8310509519650,901.8310509519650,left,0,0.4296438100282100,,,,,,13,20,K,N,2023-01-05_11h35.24.714,Flanker,2022.2.4,None,
Przez najbliższe 5 minut proszę kolorować otrzymaną kolorwankę z mandalą. Naciśnij spację aby zacząć odmierzać czas,,>>>>>,0,1,1,0,,,,,0,34,34,9,,,,,,,,,,,,,,,,,,,,,903.2642524100370,903.2642524100370,right,0,0.38325805799104300,,,,,,13,20,K,N,2023-01-05_11h35.24.714,Flanker,2022.2.4,None,
Przez najbliższe 5 minut proszę kolorować otrzymaną kolorwankę z mandalą. Naciśnij spację aby zacząć odmierzać czas,,-->--,0,1,1,0,,,,,0,35,35,51,,,,,,,,,,,,,,,,,,,,,904.6663404640280,904.6663404640280,right,0,0.3953029690310360,,,,,,13,20,K,N,2023-01-05_11h35.24.714,Flanker,2022.2.4,None,
Przez najbliższe 5 minut proszę kolorować otrzymaną kolorwankę z mandalą. Naciśnij spację aby zacząć odmierzać czas,,<<<<<,0,1,1,0,,,,,0,36,36,19,,,,,,,,,,,,,,,,,,,,,906.0770046260440,906.0770046260440,left,0,0.3685787570429970,,,,,,13,20,K,N,2023-01-05_11h35.24.714,Flanker,2022.2.4,None,
Przez najbliższe 5 minut proszę kolorować otrzymaną kolorwankę z mandalą. Naciśnij spację aby zacząć odmierzać czas,,>>>>> ,0,1,1,0,,,,,0,37,37,5,,,,,,,,,,,,,,,,,,,,,907.4474587150620,907.4474587150620,right,0,0.5611000129720200,,,,,,13,20,K,N,2023-01-05_11h35.24.714,Flanker,2022.2.4,None,
Przez najbliższe 5 minut proszę kolorować otrzymaną kolorwankę z mandalą. Naciśnij spację aby zacząć odmierzać czas,,-->--,0,1,1,0,,,,,0,38,38,50,,,,,,,,,,,,,,,,,,,,,909.0234630110210,909.0234630110210,right,0,0.3271557760890570,,,,,,13,20,K,N,2023-01-05_11h35.24.714,Flanker,2022.2.4,None,
Przez najbliższe 5 minut proszę kolorować otrzymaną kolorwankę z mandalą. Naciśnij spację aby zacząć odmierzać czas,,>>>>>,0,1,1,0,,,,,0,39,39,2,,,,,,,,,,,,,,,,,,,,,910.35703624296,910.35703624296,right,0,0.31847085896879400,,,,,,13,20,K,N,2023-01-05_11h35.24.714,Flanker,2022.2.4,None,
Przez najbliższe 5 minut proszę kolorować otrzymaną kolorwankę z mandalą. Naciśnij spację aby zacząć odmierzać czas,,<<><<,0,1,1,0,,,,,0,40,40,21,,,,,,,,,,,,,,,,,,,,,911.6808400179730,911.6808400179730,right,0,0.5014677890576420,,,,,,13,20,K,N,2023-01-05_11h35.24.714,Flanker,2022.2.4,None,
Przez najbliższe 5 minut proszę kolorować otrzymaną kolorwankę z mandalą. Naciśnij spację aby zacząć odmierzać czas,,>>>>>,0,1,1,0,,,,,0,41,41,6,,,,,,,,,,,,,,,,,,,,,913.1920110670620,913.1920110670620,right,0,0.34742425906006200,,,,,,13,20,K,N,2023-01-05_11h35.24.714,Flanker,2022.2.4,None,
Przez najbliższe 5 minut proszę kolorować otrzymaną kolorwankę z mandalą. Naciśnij spację aby zacząć odmierzać czas,,-->--,0,1,1,0,,,,,0,42,42,52,,,,,,,,,,,,,,,,,,,,,914.5611467889980,914.5611467889980,right,0,0.29324869299307500,,,,,,13,20,K,N,2023-01-05_11h35.24.714,Flanker,2022.2.4,None,
Przez najbliższe 5 minut proszę kolorować otrzymaną kolorwankę z mandalą. Naciśnij spację aby zacząć odmierzać czas,,<<<<<,0,1,1,0,,,,,0,43,43,16,,,,,,,,,,,,,,,,,,,,,915.8548596129990,915.8548596129990,left,0,0.35550568997860000,,,,,,13,20,K,N,2023-01-05_11h35.24.714,Flanker,2022.2.4,None,
Przez najbliższe 5 minut proszę kolorować otrzymaną kolorwankę z mandalą. Naciśnij spację aby zacząć odmierzać czas,,<<><<,0,1,1,0,,,,,0,44,44,24,,,,,,,,,,,,,,,,,,,,,917.2238635469690,917.2238635469690,right,0,0.5335747329518200,,,,,,13,20,K,N,2023-01-05_11h35.24.714,Flanker,2022.2.4,None,
Przez najbliższe 5 minut proszę kolorować otrzymaną kolorwankę z mandalą. Naciśnij spację aby zacząć odmierzać czas,,>><>>,0,1,1,0,,,,,0,45,45,39,,,,,,,,,,,,,,,,,,,,,918.7636952530590,918.7636952530590,left,0,0.4285272409906610,,,,,,13,20,K,N,2023-01-05_11h35.24.714,Flanker,2022.2.4,None,
Przez najbliższe 5 minut proszę kolorować otrzymaną kolorwankę z mandalą. Naciśnij spację aby zacząć odmierzać czas,,-->--,0,1,1,0,,,,,0,46,46,59,,,,,,,,,,,,,,,,,,,,,920.1968638519760,920.1968638519760,right,0,0.5843311080243440,,,,,,13,20,K,N,2023-01-05_11h35.24.714,Flanker,2022.2.4,None,
Przez najbliższe 5 minut proszę kolorować otrzymaną kolorwankę z mandalą. Naciśnij spację aby zacząć odmierzać czas,,-->--,0,1,1,0,,,,,0,47,47,54,,,,,,,,,,,,,,,,,,,,,921.7962905090540,921.7962905090540,right,0,0.3477959299925720,,,,,,13,20,K,N,2023-01-05_11h35.24.714,Flanker,2022.2.4,None,
Przez najbliższe 5 minut proszę kolorować otrzymaną kolorwankę z mandalą. Naciśnij spację aby zacząć odmierzać czas,,--<--,0,1,1,0,,,,,0,48,48,42,,,,,,,,,,,,,,,,,,,,,923.158196176053,923.158196176053,left,0,0.5639853170141580,,,,,,13,20,K,N,2023-01-05_11h35.24.714,Flanker,2022.2.4,None,
Przez najbliższe 5 minut proszę kolorować otrzymaną kolorwankę z mandalą. Naciśnij spację aby zacząć odmierzać czas,,--<--,0,1,1,0,,,,,0,49,49,40,,,,,,,,,,,,,,,,,,,,,924.7368047359630,924.7368047359630,left,0,0.40924740699119900,,,,,,13,20,K,N,2023-01-05_11h35.24.714,Flanker,2022.2.4,None,
Przez najbliższe 5 minut proszę kolorować otrzymaną kolorwankę z mandalą. Naciśnij spację aby zacząć odmierzać czas,,<<><<,0,1,1,0,,,,,0,50,50,25,,,,,,,,,,,,,,,,,,,,,926.146980531048,926.146980531048,right,0,0.45016812498215600,,,,,,13,20,K,N,2023-01-05_11h35.24.714,Flanker,2022.2.4,None,
Przez najbliższe 5 minut proszę kolorować otrzymaną kolorwankę z mandalą. Naciśnij spację aby zacząć odmierzać czas,,>>>>>,0,1,1,0,,,,,0,51,51,7,,,,,,,,,,,,,,,,,,,,,927.6083854399620,927.6083854399620,right,0,0.33355108404066400,,,,,,13,20,K,N,2023-01-05_11h35.24.714,Flanker,2022.2.4,None,
Przez najbliższe 5 minut proszę kolorować otrzymaną kolorwankę z mandalą. Naciśnij spację aby zacząć odmierzać czas,,--<--,0,1,1,0,,,,,0,52,52,49,,,,,,,,,,,,,,,,,,,,,928.942797295982,928.942797295982,left,0,0.3822777810273690,,,,,,13,20,K,N,2023-01-05_11h35.24.714,Flanker,2022.2.4,None,
Przez najbliższe 5 minut proszę kolorować otrzymaną kolorwankę z mandalą. Naciśnij spację aby zacząć odmierzać czas,,--<--,0,1,1,0,,,,,0,53,53,41,,,,,,,,,,,,,,,,,,,,,930.3304113780610,930.3304113780610,left,0,0.38262938195839500,,,,,,13,20,K,N,2023-01-05_11h35.24.714,Flanker,2022.2.4,None,
Przez najbliższe 5 minut proszę kolorować otrzymaną kolorwankę z mandalą. Naciśnij spację aby zacząć odmierzać czas,,-->--,0,1,1,0,,,,,0,54,54,58,,,,,,,,,,,,,,,,,,,,,931.7245955660470,931.7245955660470,right,0,0.40839713194873200,,,,,,13,20,K,N,2023-01-05_11h35.24.714,Flanker,2022.2.4,None,
Przez najbliższe 5 minut proszę kolorować otrzymaną kolorwankę z mandalą. Naciśnij spację aby zacząć odmierzać czas,,>>>>>,0,1,1,0,,,,,0,55,55,0,,,,,,,,,,,,,,,,,,,,,933.1421348920560,933.1421348920560,right,0,0.3458588430657980,,,,,,13,20,K,N,2023-01-05_11h35.24.714,Flanker,2022.2.4,None,
Przez najbliższe 5 minut proszę kolorować otrzymaną kolorwankę z mandalą. Naciśnij spację aby zacząć odmierzać czas,,<<><<,0,1,1,0,,,,,0,56,56,23,,,,,,,,,,,,,,,,,,,,,934.4969019660490,934.4969019660490,right,0,0.5980420790147040,,,,,,13,20,K,N,2023-01-05_11h35.24.714,Flanker,2022.2.4,None,
Przez najbliższe 5 minut proszę kolorować otrzymaną kolorwankę z mandalą. Naciśnij spację aby zacząć odmierzać czas,,>><>>,0,1,1,0,,,,,0,57,57,34,,,,,,,,,,,,,,,,,,,,,936.1138428740670,936.1138428740670,left,0,0.5619170150021090,,,,,,13,20,K,N,2023-01-05_11h35.24.714,Flanker,2022.2.4,None,
Przez najbliższe 5 minut proszę kolorować otrzymaną kolorwankę z mandalą. Naciśnij spację aby zacząć odmierzać czas,,--<--,0,1,1,0,,,,,0,58,58,44,,,,,,,,,,,,,,,,,,,,,937.6965015300080,937.6965015300080,left,0,0.3423827550141140,,,,,,13,20,K,N,2023-01-05_11h35.24.714,Flanker,2022.2.4,None,
Przez najbliższe 5 minut proszę kolorować otrzymaną kolorwankę z mandalą. Naciśnij spację aby zacząć odmierzać czas,,--<--,0,1,1,0,,,,,0,59,59,47,,,,,,,,,,,,,,,,,,,,,939.0471992780220,939.0471992780220,left,0,0.30664142593741400,,,,,,13,20,K,N,2023-01-05_11h35.24.714,Flanker,2022.2.4,None,
Przez najbliższe 5 minut proszę kolorować otrzymaną kolorwankę z mandalą. Naciśnij spację aby zacząć odmierzać czas,,,0,1,1,0,,,,,,,,,,,,,,,,,,,,,,,,,,,,,,,,,,,,,,,13,20,K,N,2023-01-05_11h35.24.714,Flanker,2022.2.4,None,
,,,,,,,,,,,,,,,,,,,,,,,,,,,,,,,,,,,,,,,,,940.3682391589970,940.3682391589970,space,1.787747647962530,13,20,K,N,2023-01-05_11h35.24.714,Flanker,2022.2.4,None,