kolorowanka,Example,Stimuli,proby.thisRepN,proby.thisTrialN,proby.thisN,proby.thisIndex,zapoznanie.thisRepN,zapoznanie.thisTrialN,zapoznanie.thisN,zapoznanie.thisIndex,Warunki.thisRepN,Warunki.thisTrialN,Warunki.thisN,Warunki.thisIndex,Intro.started,Intro_resp.started,Intro_resp.keys,Intro_resp.rt,Kolorowanie1.started,starttt.started,starttt.keys,starttt.rt,koloruj.started,Instruction.started,key_resp.started,key_resp.keys,key_resp.rt,Wyjasnienie.started,text.started,odp_przyk.started,odp_przyk.keys,odp_przyk.corr,odp_przyk.rt,zapo.started,Zadanie.started,Odp.started,Odp.keys,Odp.corr,Odp.rt,zapo.stopped,thanks.started,KONIEC.started,KONIEC.keys,KONIEC.rt,participant,Wiek (w latach),Płeć (K/M),Entropia,date,expName,psychopyVersion,frameRate,
,,,,,,,,,,,,,,,24.546866836957633,26.533009153907187,space,16.735350179951638,,,,,,,,,,,,,,,,,,,,,,,,,,,15,20,K,N,2023-01-05_12h07.45.874,Flanker,2022.2.4,None,
Przez najbliższe 5 minut proszę kolorować otrzymaną pustą kartkę. Naciśnij spację aby zacząć odmierzać czas,>><>>,,0,0,0,1,0,0,0,3,,,,,,,,,43.32227081700694,44.27906201395672,space,13.455409118905663,57.805117306998,357.76736468600575,359.7424965519458,space,20.59462586301379,380.35715704399627,389.35183758998755,389.35183758998755,right,0,4.906555199995637,,,,,,,,,,,,15,20,K,N,2023-01-05_12h07.45.874,Flanker,2022.2.4,None,
Przez najbliższe 5 minut proszę kolorować otrzymaną pustą kartkę. Naciśnij spację aby zacząć odmierzać czas,--<--,,0,0,0,1,0,1,1,4,,,,,,,,,,,,,,,,,,,395.27273648499977,395.27273648499977,left,0,1.6803225770127028,,,,,,,,,,,,15,20,K,N,2023-01-05_12h07.45.874,Flanker,2022.2.4,None,
Przez najbliższe 5 minut proszę kolorować otrzymaną pustą kartkę. Naciśnij spację aby zacząć odmierzać czas,-->--,,0,0,0,1,0,2,2,5,,,,,,,,,,,,,,,,,,,397.9705380749656,397.9705380749656,right,0,0.7742351820925251,,,,,,,,,,,,15,20,K,N,2023-01-05_12h07.45.874,Flanker,2022.2.4,None,
Przez najbliższe 5 minut proszę kolorować otrzymaną pustą kartkę. Naciśnij spację aby zacząć odmierzać czas,<<><<,,0,0,0,1,0,3,3,2,,,,,,,,,,,,,,,,,,,399.7681051569525,399.7681051569525,right,0,1.9898859830573201,,,,,,,,,,,,15,20,K,N,2023-01-05_12h07.45.874,Flanker,2022.2.4,None,
Przez najbliższe 5 minut proszę kolorować otrzymaną pustą kartkę. Naciśnij spację aby zacząć odmierzać czas,>>>>>,,0,0,0,1,0,4,4,1,,,,,,,,,,,,,,,,,,,402.76019949489273,402.76019949489273,right,0,0.8145415949402377,,,,,,,,,,,,15,20,K,N,2023-01-05_12h07.45.874,Flanker,2022.2.4,None,
Przez najbliższe 5 minut proszę kolorować otrzymaną pustą kartkę. Naciśnij spację aby zacząć odmierzać czas,<<<<<,,0,0,0,1,0,5,5,0,,,,,,,,,,,,,,,,,,,404.5867303289706,404.5867303289706,left,0,0.5161276999861002,,,,,,,,,,,,15,20,K,N,2023-01-05_12h07.45.874,Flanker,2022.2.4,None,
Przez najbliższe 5 minut proszę kolorować otrzymaną pustą kartkę. Naciśnij spację aby zacząć odmierzać czas,,>>>>>,0,0,0,1,,,,,0,0,0,9,,,,,,,,,,,,,,,,,,,,406.11690766597167,414.11417496996,414.11417496996,right,0,0.7814142630668357,,,,,,15,20,K,N,2023-01-05_12h07.45.874,Flanker,2022.2.4,None,
Przez najbliższe 5 minut proszę kolorować otrzymaną pustą kartkę. Naciśnij spację aby zacząć odmierzać czas,,<<<<<,0,0,0,1,,,,,0,1,1,11,,,,,,,,,,,,,,,,,,,,,415.9037812720053,415.9037812720053,left,0,0.43156734202057123,,,,,,15,20,K,N,2023-01-05_12h07.45.874,Flanker,2022.2.4,None,
Przez najbliższe 5 minut proszę kolorować otrzymaną pustą kartkę. Naciśnij spację aby zacząć odmierzać czas,,--<--,0,0,0,1,,,,,0,2,2,44,,,,,,,,,,,,,,,,,,,,,417.3480300459778,417.3480300459778,left,0,0.43922422791365534,,,,,,15,20,K,N,2023-01-05_12h07.45.874,Flanker,2022.2.4,None,
Przez najbliższe 5 minut proszę kolorować otrzymaną pustą kartkę. Naciśnij spację aby zacząć odmierzać czas,,<<><<,0,0,0,1,,,,,0,3,3,21,,,,,,,,,,,,,,,,,,,,,418.79299838794395,418.79299838794395,right,0,0.5661849939497188,,,,,,15,20,K,N,2023-01-05_12h07.45.874,Flanker,2022.2.4,None,
Przez najbliższe 5 minut proszę kolorować otrzymaną pustą kartkę. Naciśnij spację aby zacząć odmierzać czas,,>><>>,0,0,0,1,,,,,0,4,4,36,,,,,,,,,,,,,,,,,,,,,420.3766063179355,420.3766063179355,left,0,0.5235999050782993,,,,,,15,20,K,N,2023-01-05_12h07.45.874,Flanker,2022.2.4,None,
Przez najbliższe 5 minut proszę kolorować otrzymaną pustą kartkę. Naciśnij spację aby zacząć odmierzać czas,,-->--,0,0,0,1,,,,,0,5,5,52,,,,,,,,,,,,,,,,,,,,,421.90608541399706,421.90608541399706,right,0,0.34815854800399393,,,,,,15,20,K,N,2023-01-05_12h07.45.874,Flanker,2022.2.4,None,
Przez najbliższe 5 minut proszę kolorować otrzymaną pustą kartkę. Naciśnij spację aby zacząć odmierzać czas,,<<<<<,0,0,0,1,,,,,0,6,6,13,,,,,,,,,,,,,,,,,,,,,423.2600001608953,423.2600001608953,left,0,0.4110441479133442,,,,,,15,20,K,N,2023-01-05_12h07.45.874,Flanker,2022.2.4,None,
Przez najbliższe 5 minut proszę kolorować otrzymaną pustą kartkę. Naciśnij spację aby zacząć odmierzać czas,,<<<<<,0,0,0,1,,,,,0,7,7,10,,,,,,,,,,,,,,,,,,,,,424.6774109679973,424.6774109679973,left,0,0.5036159340525046,,,,,,15,20,K,N,2023-01-05_12h07.45.874,Flanker,2022.2.4,None,
Przez najbliższe 5 minut proszę kolorować otrzymaną pustą kartkę. Naciśnij spację aby zacząć odmierzać czas,,<<<<<,0,0,0,1,,,,,0,8,8,14,,,,,,,,,,,,,,,,,,,,,426.19796312600374,426.19796312600374,left,0,0.38519775902386755,,,,,,15,20,K,N,2023-01-05_12h07.45.874,Flanker,2022.2.4,None,
Przez najbliższe 5 minut proszę kolorować otrzymaną pustą kartkę. Naciśnij spację aby zacząć odmierzać czas,,<<<<<,0,0,0,1,,,,,0,9,9,19,,,,,,,,,,,,,,,,,,,,,427.5930130039342,427.5930130039342,left,0,0.3590230679837987,,,,,,15,20,K,N,2023-01-05_12h07.45.874,Flanker,2022.2.4,None,
Przez najbliższe 5 minut proszę kolorować otrzymaną pustą kartkę. Naciśnij spację aby zacząć odmierzać czas,,<<><<,0,0,0,1,,,,,0,10,10,29,,,,,,,,,,,,,,,,,,,,,428.9708744100062,428.9708744100062,right,0,0.5231052179588005,,,,,,15,20,K,N,2023-01-05_12h07.45.874,Flanker,2022.2.4,None,
Przez najbliższe 5 minut proszę kolorować otrzymaną pustą kartkę. Naciśnij spację aby zacząć odmierzać czas,,-->--,0,0,0,1,,,,,0,11,11,51,,,,,,,,,,,,,,,,,,,,,430.5561201989185,430.5561201989185,right,0,0.43883235508110374,,,,,,15,20,K,N,2023-01-05_12h07.45.874,Flanker,2022.2.4,None,
Przez najbliższe 5 minut proszę kolorować otrzymaną pustą kartkę. Naciśnij spację aby zacząć odmierzać czas,,>>>>>,0,0,0,1,,,,,0,12,12,4,,,,,,,,,,,,,,,,,,,,,432.00478628790006,432.00478628790006,right,0,0.5282855209661648,,,,,,15,20,K,N,2023-01-05_12h07.45.874,Flanker,2022.2.4,None,
Przez najbliższe 5 minut proszę kolorować otrzymaną pustą kartkę. Naciśnij spację aby zacząć odmierzać czas,,<<><<,0,0,0,1,,,,,0,13,13,27,,,,,,,,,,,,,,,,,,,,,433.5389322529081,433.5389322529081,right,0,0.57191869802773,,,,,,15,20,K,N,2023-01-05_12h07.45.874,Flanker,2022.2.4,None,
Przez najbliższe 5 minut proszę kolorować otrzymaną pustą kartkę. Naciśnij spację aby zacząć odmierzać czas,,>>>>>,0,0,0,1,,,,,0,14,14,3,,,,,,,,,,,,,,,,,,,,,435.13118206197396,435.13118206197396,right,0,0.3865668330108747,,,,,,15,20,K,N,2023-01-05_12h07.45.874,Flanker,2022.2.4,None,
Przez najbliższe 5 minut proszę kolorować otrzymaną pustą kartkę. Naciśnij spację aby zacząć odmierzać czas,,--<--,0,0,0,1,,,,,0,15,15,41,,,,,,,,,,,,,,,,,,,,,436.53241861891,436.53241861891,left,0,0.43045616894960403,,,,,,15,20,K,N,2023-01-05_12h07.45.874,Flanker,2022.2.4,None,
Przez najbliższe 5 minut proszę kolorować otrzymaną pustą kartkę. Naciśnij spację aby zacząć odmierzać czas,,>><>>,0,0,0,1,,,,,0,16,16,37,,,,,,,,,,,,,,,,,,,,,437.9672863499727,437.9672863499727,left,0,0.4964564989786595,,,,,,15,20,K,N,2023-01-05_12h07.45.874,Flanker,2022.2.4,None,
Przez najbliższe 5 minut proszę kolorować otrzymaną pustą kartkę. Naciśnij spację aby zacząć odmierzać czas,,--<--,0,0,0,1,,,,,0,17,17,47,,,,,,,,,,,,,,,,,,,,,439.4660017689457,439.4660017689457,left,0,0.4266975380014628,,,,,,15,20,K,N,2023-01-05_12h07.45.874,Flanker,2022.2.4,None,
Przez najbliższe 5 minut proszę kolorować otrzymaną pustą kartkę. Naciśnij spację aby zacząć odmierzać czas,,>><>>,0,0,0,1,,,,,0,18,18,31,,,,,,,,,,,,,,,,,,,,,440.9001754249912,440.9001754249912,left,0,0.5055746040306985,,,,,,15,20,K,N,2023-01-05_12h07.45.874,Flanker,2022.2.4,None,
Przez najbliższe 5 minut proszę kolorować otrzymaną pustą kartkę. Naciśnij spację aby zacząć odmierzać czas,,<<<<<,0,0,0,1,,,,,0,19,19,12,,,,,,,,,,,,,,,,,,,,,442.4159538130043,442.4159538130043,left,0,0.3967480310238898,,,,,,15,20,K,N,2023-01-05_12h07.45.874,Flanker,2022.2.4,None,
Przez najbliższe 5 minut proszę kolorować otrzymaną pustą kartkę. Naciśnij spację aby zacząć odmierzać czas,,-->--,0,0,0,1,,,,,0,20,20,53,,,,,,,,,,,,,,,,,,,,,443.83260584191885,443.83260584191885,right,0,0.5099983139662072,,,,,,15,20,K,N,2023-01-05_12h07.45.874,Flanker,2022.2.4,None,
Przez najbliższe 5 minut proszę kolorować otrzymaną pustą kartkę. Naciśnij spację aby zacząć odmierzać czas,,-->--,0,0,0,1,,,,,0,21,21,54,,,,,,,,,,,,,,,,,,,,,445.3520565199433,445.3520565199433,right,0,0.4065928680356592,,,,,,15,20,K,N,2023-01-05_12h07.45.874,Flanker,2022.2.4,None,
Przez najbliższe 5 minut proszę kolorować otrzymaną pustą kartkę. Naciśnij spację aby zacząć odmierzać czas,,-->--,0,0,0,1,,,,,0,22,22,56,,,,,,,,,,,,,,,,,,,,,446.7649143979652,446.7649143979652,right,0,0.32875066599808633,,,,,,15,20,K,N,2023-01-05_12h07.45.874,Flanker,2022.2.4,None,
Przez najbliższe 5 minut proszę kolorować otrzymaną pustą kartkę. Naciśnij spację aby zacząć odmierzać czas,,<<><<,0,0,0,1,,,,,0,23,23,23,,,,,,,,,,,,,,,,,,,,,448.10360252589453,448.10360252589453,right,0,0.6390308080008253,,,,,,15,20,K,N,2023-01-05_12h07.45.874,Flanker,2022.2.4,None,
Przez najbliższe 5 minut proszę kolorować otrzymaną pustą kartkę. Naciśnij spację aby zacząć odmierzać czas,,<<><<,0,0,0,1,,,,,0,24,24,26,,,,,,,,,,,,,,,,,,,,,449.75971058092546,449.75971058092546,right,0,0.5598486789967865,,,,,,15,20,K,N,2023-01-05_12h07.45.874,Flanker,2022.2.4,None,
Przez najbliższe 5 minut proszę kolorować otrzymaną pustą kartkę. Naciśnij spację aby zacząć odmierzać czas,,<<><<,0,0,0,1,,,,,0,25,25,22,,,,,,,,,,,,,,,,,,,,,451.32582916493993,451.32582916493993,right,0,0.5266334090847522,,,,,,15,20,K,N,2023-01-05_12h07.45.874,Flanker,2022.2.4,None,
Przez najbliższe 5 minut proszę kolorować otrzymaną pustą kartkę. Naciśnij spację aby zacząć odmierzać czas,,>><>>,0,0,0,1,,,,,0,26,26,34,,,,,,,,,,,,,,,,,,,,,452.8661730809836,452.8661730809836,left,0,0.6233437600312755,,,,,,15,20,K,N,2023-01-05_12h07.45.874,Flanker,2022.2.4,None,
Przez najbliższe 5 minut proszę kolorować otrzymaną pustą kartkę. Naciśnij spację aby zacząć odmierzać czas,,<<<<<,0,0,0,1,,,,,0,27,27,15,,,,,,,,,,,,,,,,,,,,,454.4992535399506,454.4992535399506,left,0,0.5161080579273403,,,,,,15,20,K,N,2023-01-05_12h07.45.874,Flanker,2022.2.4,None,
Przez najbliższe 5 minut proszę kolorować otrzymaną pustą kartkę. Naciśnij spację aby zacząć odmierzać czas,,-->--,0,0,0,1,,,,,0,28,28,57,,,,,,,,,,,,,,,,,,,,,456.01909260090906,456.01909260090906,right,0,0.38739360601175576,,,,,,15,20,K,N,2023-01-05_12h07.45.874,Flanker,2022.2.4,None,
Przez najbliższe 5 minut proszę kolorować otrzymaną pustą kartkę. Naciśnij spację aby zacząć odmierzać czas,,--<--,0,0,0,1,,,,,0,29,29,48,,,,,,,,,,,,,,,,,,,,,457.41034927393775,457.41034927393775,left,0,0.4880442349240184,,,,,,15,20,K,N,2023-01-05_12h07.45.874,Flanker,2022.2.4,None,
Przez najbliższe 5 minut proszę kolorować otrzymaną pustą kartkę. Naciśnij spację aby zacząć odmierzać czas,,--<--,0,0,0,1,,,,,0,30,30,46,,,,,,,,,,,,,,,,,,,,,458.9057445769431,458.9057445769431,left,0,0.4036442319629714,,,,,,15,20,K,N,2023-01-05_12h07.45.874,Flanker,2022.2.4,None,
Przez najbliższe 5 minut proszę kolorować otrzymaną pustą kartkę. Naciśnij spację aby zacząć odmierzać czas,,>>>>>,0,0,0,1,,,,,0,31,31,0,,,,,,,,,,,,,,,,,,,,,460.31572277494706,460.31572277494706,right,0,0.4036162249976769,,,,,,15,20,K,N,2023-01-05_12h07.45.874,Flanker,2022.2.4,None,
Przez najbliższe 5 minut proszę kolorować otrzymaną pustą kartkę. Naciśnij spację aby zacząć odmierzać czas,,>><>>,0,0,0,1,,,,,0,32,32,39,,,,,,,,,,,,,,,,,,,,,461.73245672194753,461.73245672194753,left,0,0.6729670950444415,,,,,,15,20,K,N,2023-01-05_12h07.45.874,Flanker,2022.2.4,None,
Przez najbliższe 5 minut proszę kolorować otrzymaną pustą kartkę. Naciśnij spację aby zacząć odmierzać czas,,>>>>>,0,0,0,1,,,,,0,33,33,2,,,,,,,,,,,,,,,,,,,,,463.4322200509487,463.4322200509487,right,0,0.3490029970416799,,,,,,15,20,K,N,2023-01-05_12h07.45.874,Flanker,2022.2.4,None,
Przez najbliższe 5 minut proszę kolorować otrzymaną pustą kartkę. Naciśnij spację aby zacząć odmierzać czas,,--<--,0,0,0,1,,,,,0,34,34,42,,,,,,,,,,,,,,,,,,,,,464.78595893492457,464.78595893492457,left,0,0.41521408199332654,,,,,,15,20,K,N,2023-01-05_12h07.45.874,Flanker,2022.2.4,None,
Przez najbliższe 5 minut proszę kolorować otrzymaną pustą kartkę. Naciśnij spację aby zacząć odmierzać czas,,>>>>>,0,0,0,1,,,,,0,35,35,7,,,,,,,,,,,,,,,,,,,,,466.20391516096424,466.20391516096424,right,0,0.440276802983135,,,,,,15,20,K,N,2023-01-05_12h07.45.874,Flanker,2022.2.4,None,
Przez najbliższe 5 minut proszę kolorować otrzymaną pustą kartkę. Naciśnij spację aby zacząć odmierzać czas,,--<--,0,0,0,1,,,,,0,36,36,40,,,,,,,,,,,,,,,,,,,,,467.64975023292936,467.64975023292936,left,0,0.40538548002950847,,,,,,15,20,K,N,2023-01-05_12h07.45.874,Flanker,2022.2.4,None,
Przez najbliższe 5 minut proszę kolorować otrzymaną pustą kartkę. Naciśnij spację aby zacząć odmierzać czas,,>>>>> ,0,0,0,1,,,,,0,37,37,5,,,,,,,,,,,,,,,,,,,,,469.0696920189075,469.0696920189075,right,0,0.48833320394624025,,,,,,15,20,K,N,2023-01-05_12h07.45.874,Flanker,2022.2.4,None,
Przez najbliższe 5 minut proszę kolorować otrzymaną pustą kartkę. Naciśnij spację aby zacząć odmierzać czas,,--<--,0,0,0,1,,,,,0,38,38,45,,,,,,,,,,,,,,,,,,,,,470.5755659379065,470.5755659379065,left,0,0.26856190094258636,,,,,,15,20,K,N,2023-01-05_12h07.45.874,Flanker,2022.2.4,None,
Przez najbliższe 5 minut proszę kolorować otrzymaną pustą kartkę. Naciśnij spację aby zacząć odmierzać czas,,>><>>,0,0,0,1,,,,,0,39,39,33,,,,,,,,,,,,,,,,,,,,,471.8508250609739,471.8508250609739,left,0,0.4432695339201018,,,,,,15,20,K,N,2023-01-05_12h07.45.874,Flanker,2022.2.4,None,
Przez najbliższe 5 minut proszę kolorować otrzymaną pustą kartkę. Naciśnij spację aby zacząć odmierzać czas,,<<<<<,0,0,0,1,,,,,0,40,40,18,,,,,,,,,,,,,,,,,,,,,473.3024027219508,473.3024027219508,left,0,0.39861057710368186,,,,,,15,20,K,N,2023-01-05_12h07.45.874,Flanker,2022.2.4,None,
Przez najbliższe 5 minut proszę kolorować otrzymaną pustą kartkę. Naciśnij spację aby zacząć odmierzać czas,,-->--,0,0,0,1,,,,,0,41,41,55,,,,,,,,,,,,,,,,,,,,,474.70431578799617,474.70431578799617,right,0,0.4536959519609809,,,,,,15,20,K,N,2023-01-05_12h07.45.874,Flanker,2022.2.4,None,
Przez najbliższe 5 minut proszę kolorować otrzymaną pustą kartkę. Naciśnij spację aby zacząć odmierzać czas,,<<><<,0,0,0,1,,,,,0,42,42,20,,,,,,,,,,,,,,,,,,,,,476.1679475439014,476.1679475439014,right,0,0.5110068399226293,,,,,,15,20,K,N,2023-01-05_12h07.45.874,Flanker,2022.2.4,None,
Przez najbliższe 5 minut proszę kolorować otrzymaną pustą kartkę. Naciśnij spację aby zacząć odmierzać czas,,>>>>>,0,0,0,1,,,,,0,43,43,8,,,,,,,,,,,,,,,,,,,,,477.69900267897174,477.69900267897174,right,0,0.3888405670877546,,,,,,15,20,K,N,2023-01-05_12h07.45.874,Flanker,2022.2.4,None,
Przez najbliższe 5 minut proszę kolorować otrzymaną pustą kartkę. Naciśnij spację aby zacząć odmierzać czas,,<<><<,0,0,0,1,,,,,0,44,44,28,,,,,,,,,,,,,,,,,,,,,479.10728902893607,479.10728902893607,right,0,0.4965775099117309,,,,,,15,20,K,N,2023-01-05_12h07.45.874,Flanker,2022.2.4,None,
Przez najbliższe 5 minut proszę kolorować otrzymaną pustą kartkę. Naciśnij spację aby zacząć odmierzać czas,,<<><<,0,0,0,1,,,,,0,45,45,24,,,,,,,,,,,,,,,,,,,,,480.65980823896825,480.65980823896825,right,0,0.4960730350576341,,,,,,15,20,K,N,2023-01-05_12h07.45.874,Flanker,2022.2.4,None,
Przez najbliższe 5 minut proszę kolorować otrzymaną pustą kartkę. Naciśnij spację aby zacząć odmierzać czas,,>><>>,0,0,0,1,,,,,0,46,46,35,,,,,,,,,,,,,,,,,,,,,482.1655268049799,482.1655268049799,left,0,0.5661678200121969,,,,,,15,20,K,N,2023-01-05_12h07.45.874,Flanker,2022.2.4,None,
Przez najbliższe 5 minut proszę kolorować otrzymaną pustą kartkę. Naciśnij spację aby zacząć odmierzać czas,,-->--,0,0,0,1,,,,,0,47,47,58,,,,,,,,,,,,,,,,,,,,,483.7523265519412,483.7523265519412,right,0,0.41348431492224336,,,,,,15,20,K,N,2023-01-05_12h07.45.874,Flanker,2022.2.4,None,
Przez najbliższe 5 minut proszę kolorować otrzymaną pustą kartkę. Naciśnij spację aby zacząć odmierzać czas,,>><>>,0,0,0,1,,,,,0,48,48,30,,,,,,,,,,,,,,,,,,,,,485.17080026189797,485.17080026189797,left,0,0.6419299519620836,,,,,,15,20,K,N,2023-01-05_12h07.45.874,Flanker,2022.2.4,None,
Przez najbliższe 5 minut proszę kolorować otrzymaną pustą kartkę. Naciśnij spację aby zacząć odmierzać czas,,>>>>>,0,0,0,1,,,,,0,49,49,1,,,,,,,,,,,,,,,,,,,,,486.81924302794505,486.81924302794505,right,0,0.40754795097745955,,,,,,15,20,K,N,2023-01-05_12h07.45.874,Flanker,2022.2.4,None,
Przez najbliższe 5 minut proszę kolorować otrzymaną pustą kartkę. Naciśnij spację aby zacząć odmierzać czas,,>><>>,0,0,0,1,,,,,0,50,50,32,,,,,,,,,,,,,,,,,,,,,488.2389702909859,488.2389702909859,left,0,0.3716825790470466,,,,,,15,20,K,N,2023-01-05_12h07.45.874,Flanker,2022.2.4,None,
Przez najbliższe 5 minut proszę kolorować otrzymaną pustą kartkę. Naciśnij spację aby zacząć odmierzać czas,,-->--,0,0,0,1,,,,,0,51,51,59,,,,,,,,,,,,,,,,,,,,,489.63197285390925,489.63197285390925,right,0,0.3826562319882214,,,,,,15,20,K,N,2023-01-05_12h07.45.874,Flanker,2022.2.4,None,
Przez najbliższe 5 minut proszę kolorować otrzymaną pustą kartkę. Naciśnij spację aby zacząć odmierzać czas,,<<><<,0,0,0,1,,,,,0,52,52,25,,,,,,,,,,,,,,,,,,,,,491.02180120395496,491.02180120395496,right,0,0.4987578729633242,,,,,,15,20,K,N,2023-01-05_12h07.45.874,Flanker,2022.2.4,None,
Przez najbliższe 5 minut proszę kolorować otrzymaną pustą kartkę. Naciśnij spację aby zacząć odmierzać czas,,>><>>,0,0,0,1,,,,,0,53,53,38,,,,,,,,,,,,,,,,,,,,,492.5320737659931,492.5320737659931,left,0,0.5186064770678058,,,,,,15,20,K,N,2023-01-05_12h07.45.874,Flanker,2022.2.4,None,
Przez najbliższe 5 minut proszę kolorować otrzymaną pustą kartkę. Naciśnij spację aby zacząć odmierzać czas,,--<--,0,0,0,1,,,,,0,54,54,43,,,,,,,,,,,,,,,,,,,,,494.068487765966,494.068487765966,left,0,0.4129744069650769,,,,,,15,20,K,N,2023-01-05_12h07.45.874,Flanker,2022.2.4,None,
Przez najbliższe 5 minut proszę kolorować otrzymaną pustą kartkę. Naciśnij spację aby zacząć odmierzać czas,,>>>>>,0,0,0,1,,,,,0,55,55,6,,,,,,,,,,,,,,,,,,,,,495.49870760098565,495.49870760098565,right,0,0.469826324027963,,,,,,15,20,K,N,2023-01-05_12h07.45.874,Flanker,2022.2.4,None,
Przez najbliższe 5 minut proszę kolorować otrzymaną pustą kartkę. Naciśnij spację aby zacząć odmierzać czas,,-->--,0,0,0,1,,,,,0,56,56,50,,,,,,,,,,,,,,,,,,,,,496.98531891498715,496.98531891498715,right,0,0.3502550960984081,,,,,,15,20,K,N,2023-01-05_12h07.45.874,Flanker,2022.2.4,None,
Przez najbliższe 5 minut proszę kolorować otrzymaną pustą kartkę. Naciśnij spację aby zacząć odmierzać czas,,<<<<<,0,0,0,1,,,,,0,57,57,17,,,,,,,,,,,,,,,,,,,,,498.3485122899292,498.3485122899292,left,0,0.37503164098598063,,,,,,15,20,K,N,2023-01-05_12h07.45.874,Flanker,2022.2.4,None,
Przez najbliższe 5 minut proszę kolorować otrzymaną pustą kartkę. Naciśnij spację aby zacząć odmierzać czas,,<<<<<,0,0,0,1,,,,,0,58,58,16,,,,,,,,,,,,,,,,,,,,,499.73168584296945,499.73168584296945,left,0,0.32868597004562616,,,,,,15,20,K,N,2023-01-05_12h07.45.874,Flanker,2022.2.4,None,
Przez najbliższe 5 minut proszę kolorować otrzymaną pustą kartkę. Naciśnij spację aby zacząć odmierzać czas,,--<--,0,0,0,1,,,,,0,59,59,49,,,,,,,,,,,,,,,,,,,,,501.06533391191624,501.06533391191624,left,0,0.3280710499966517,,,,,,15,20,K,N,2023-01-05_12h07.45.874,Flanker,2022.2.4,None,
Przez najbliższe 5 minut proszę kolorować otrzymaną pustą kartkę. Naciśnij spację aby zacząć odmierzać czas,,,0,0,0,1,,,,,,,,,,,,,,,,,,,,,,,,,,,,,,,,,,,,,,,15,20,K,N,2023-01-05_12h07.45.874,Flanker,2022.2.4,None,
Przez najbliższe 5 minut proszę kolorować otrzymaną kolorwankę z mandalą. Naciśnij spację aby zacząć odmierzać czas,-->--,,0,1,1,0,0,0,0,5,,,,,,,,,501.43706055695657,502.4003231920069,space,7.22335117100738,509.63951446895953,809.6444468538975,811.625717103947,space,5.6298938690451905,817.2835324360058,826.2720440309495,826.2720440309495,right,0,0.7130595890339464,,,,,,,,,,,,15,20,K,N,2023-01-05_12h07.45.874,Flanker,2022.2.4,None,
Przez najbliższe 5 minut proszę kolorować otrzymaną kolorwankę z mandalą. Naciśnij spację aby zacząć odmierzać czas,<<<<<,,0,1,1,0,0,1,1,0,,,,,,,,,,,,,,,,,,,828.0007602279074,828.0007602279074,left,0,0.43931902293115854,,,,,,,,,,,,15,20,K,N,2023-01-05_12h07.45.874,Flanker,2022.2.4,None,
Przez najbliższe 5 minut proszę kolorować otrzymaną kolorwankę z mandalą. Naciśnij spację aby zacząć odmierzać czas,>>>>>,,0,1,1,0,0,2,2,1,,,,,,,,,,,,,,,,,,,829.4505327939987,829.4505327939987,right,0,0.37852206302341074,,,,,,,,,,,,15,20,K,N,2023-01-05_12h07.45.874,Flanker,2022.2.4,None,
Przez najbliższe 5 minut proszę kolorować otrzymaną kolorwankę z mandalą. Naciśnij spację aby zacząć odmierzać czas,>><>>,,0,1,1,0,0,3,3,3,,,,,,,,,,,,,,,,,,,830.8331123410026,830.8331123410026,left,0,0.582886831020005,,,,,,,,,,,,15,20,K,N,2023-01-05_12h07.45.874,Flanker,2022.2.4,None,
Przez najbliższe 5 minut proszę kolorować otrzymaną kolorwankę z mandalą. Naciśnij spację aby zacząć odmierzać czas,<<><<,,0,1,1,0,0,4,4,2,,,,,,,,,,,,,,,,,,,832.4308172889287,832.4308172889287,right,0,0.5362480659969151,,,,,,,,,,,,15,20,K,N,2023-01-05_12h07.45.874,Flanker,2022.2.4,None,
Przez najbliższe 5 minut proszę kolorować otrzymaną kolorwankę z mandalą. Naciśnij spację aby zacząć odmierzać czas,--<--,,0,1,1,0,0,5,5,4,,,,,,,,,,,,,,,,,,,833.9811257409165,833.9811257409165,left,0,0.333785229944624,,,,,,,,,,,,15,20,K,N,2023-01-05_12h07.45.874,Flanker,2022.2.4,None,
Przez najbliższe 5 minut proszę kolorować otrzymaną kolorwankę z mandalą. Naciśnij spację aby zacząć odmierzać czas,,--<--,0,1,1,0,,,,,0,0,0,49,,,,,,,,,,,,,,,,,,,,835.3124879749957,843.3176543639274,843.3176543639274,left,0,0.5357311529805884,842.3264366039075,,,,,15,20,K,N,2023-01-05_12h07.45.874,Flanker,2022.2.4,None,
Przez najbliższe 5 minut proszę kolorować otrzymaną kolorwankę z mandalą. Naciśnij spację aby zacząć odmierzać czas,,--<--,0,1,1,0,,,,,0,1,1,46,,,,,,,,,,,,,,,,,,,,,844.8689580379287,844.8689580379287,left,0,0.39400237798690796,,,,,,15,20,K,N,2023-01-05_12h07.45.874,Flanker,2022.2.4,None,
Przez najbliższe 5 minut proszę kolorować otrzymaną kolorwankę z mandalą. Naciśnij spację aby zacząć odmierzać czas,,<<><<,0,1,1,0,,,,,0,2,2,28,,,,,,,,,,,,,,,,,,,,,846.2709015239961,846.2709015239961,right,0,0.49930458795279264,,,,,,15,20,K,N,2023-01-05_12h07.45.874,Flanker,2022.2.4,None,
Przez najbliższe 5 minut proszę kolorować otrzymaną kolorwankę z mandalą. Naciśnij spację aby zacząć odmierzać czas,,>><>>,0,1,1,0,,,,,0,3,3,37,,,,,,,,,,,,,,,,,,,,,847.7821875839727,847.7821875839727,left,0,0.5168756699422374,,,,,,15,20,K,N,2023-01-05_12h07.45.874,Flanker,2022.2.4,None,
Przez najbliższe 5 minut proszę kolorować otrzymaną kolorwankę z mandalą. Naciśnij spację aby zacząć odmierzać czas,,>><>>,0,1,1,0,,,,,0,4,4,32,,,,,,,,,,,,,,,,,,,,,849.3113992409781,849.3113992409781,left,0,0.4975799339590594,,,,,,15,20,K,N,2023-01-05_12h07.45.874,Flanker,2022.2.4,None,
Przez najbliższe 5 minut proszę kolorować otrzymaną kolorwankę z mandalą. Naciśnij spację aby zacząć odmierzać czas,,>>>>>,0,1,1,0,,,,,0,5,5,6,,,,,,,,,,,,,,,,,,,,,850.8225882909028,850.8225882909028,right,0,0.36832608899567276,,,,,,15,20,K,N,2023-01-05_12h07.45.874,Flanker,2022.2.4,None,
Przez najbliższe 5 minut proszę kolorować otrzymaną kolorwankę z mandalą. Naciśnij spację aby zacząć odmierzać czas,,-->--,0,1,1,0,,,,,0,6,6,56,,,,,,,,,,,,,,,,,,,,,852.18909944396,852.18909944396,right,0,0.3917864910326898,,,,,,15,20,K,N,2023-01-05_12h07.45.874,Flanker,2022.2.4,None,
Przez najbliższe 5 minut proszę kolorować otrzymaną kolorwankę z mandalą. Naciśnij spację aby zacząć odmierzać czas,,>>>>>,0,1,1,0,,,,,0,7,7,4,,,,,,,,,,,,,,,,,,,,,853.5978419169551,853.5978419169551,right,0,0.34920169599354267,,,,,,15,20,K,N,2023-01-05_12h07.45.874,Flanker,2022.2.4,None,
Przez najbliższe 5 minut proszę kolorować otrzymaną kolorwankę z mandalą. Naciśnij spację aby zacząć odmierzać czas,,-->--,0,1,1,0,,,,,0,8,8,58,,,,,,,,,,,,,,,,,,,,,854.9555123149185,854.9555123149185,right,0,0.3072970180073753,,,,,,15,20,K,N,2023-01-05_12h07.45.874,Flanker,2022.2.4,None,
Przez najbliższe 5 minut proszę kolorować otrzymaną kolorwankę z mandalą. Naciśnij spację aby zacząć odmierzać czas,,>><>>,0,1,1,0,,,,,0,9,9,34,,,,,,,,,,,,,,,,,,,,,856.2627370369155,856.2627370369155,left,0,0.6080952059710398,,,,,,15,20,K,N,2023-01-05_12h07.45.874,Flanker,2022.2.4,None,
Przez najbliższe 5 minut proszę kolorować otrzymaną kolorwankę z mandalą. Naciśnij spację aby zacząć odmierzać czas,,<<><<,0,1,1,0,,,,,0,10,10,24,,,,,,,,,,,,,,,,,,,,,857.8719748349395,857.8719748349395,right,0,0.514863234013319,,,,,,15,20,K,N,2023-01-05_12h07.45.874,Flanker,2022.2.4,None,
Przez najbliższe 5 minut proszę kolorować otrzymaną kolorwankę z mandalą. Naciśnij spację aby zacząć odmierzać czas,,>>>>>,0,1,1,0,,,,,0,11,11,2,,,,,,,,,,,,,,,,,,,,,859.4011346629122,859.4011346629122,right,0,0.36862440104596317,,,,,,15,20,K,N,2023-01-05_12h07.45.874,Flanker,2022.2.4,None,
Przez najbliższe 5 minut proszę kolorować otrzymaną kolorwankę z mandalą. Naciśnij spację aby zacząć odmierzać czas,,>>>>>,0,1,1,0,,,,,0,12,12,1,,,,,,,,,,,,,,,,,,,,,860.7768986899173,860.7768986899173,right,0,0.39393050700891763,,,,,,15,20,K,N,2023-01-05_12h07.45.874,Flanker,2022.2.4,None,
Przez najbliższe 5 minut proszę kolorować otrzymaną kolorwankę z mandalą. Naciśnij spację aby zacząć odmierzać czas,,-->--,0,1,1,0,,,,,0,13,13,51,,,,,,,,,,,,,,,,,,,,,862.1719536629971,862.1719536629971,right,0,0.33683191100135446,,,,,,15,20,K,N,2023-01-05_12h07.45.874,Flanker,2022.2.4,None,
Przez najbliższe 5 minut proszę kolorować otrzymaną kolorwankę z mandalą. Naciśnij spację aby zacząć odmierzać czas,,-->--,0,1,1,0,,,,,0,14,14,52,,,,,,,,,,,,,,,,,,,,,863.5270649909507,863.5270649909507,right,0,0.29861317202448845,,,,,,15,20,K,N,2023-01-05_12h07.45.874,Flanker,2022.2.4,None,
Przez najbliższe 5 minut proszę kolorować otrzymaną kolorwankę z mandalą. Naciśnij spację aby zacząć odmierzać czas,,<<><<,0,1,1,0,,,,,0,15,15,22,,,,,,,,,,,,,,,,,,,,,864.8275916619459,864.8275916619459,right,0,0.551032139104791,,,,,,15,20,K,N,2023-01-05_12h07.45.874,Flanker,2022.2.4,None,
Przez najbliższe 5 minut proszę kolorować otrzymaną kolorwankę z mandalą. Naciśnij spację aby zacząć odmierzać czas,,>>>>>,0,1,1,0,,,,,0,16,16,0,,,,,,,,,,,,,,,,,,,,,866.3809841669863,866.3809841669863,right,0,0.3856689390959218,,,,,,15,20,K,N,2023-01-05_12h07.45.874,Flanker,2022.2.4,None,
Przez najbliższe 5 minut proszę kolorować otrzymaną kolorwankę z mandalą. Naciśnij spację aby zacząć odmierzać czas,,>>>>>,0,1,1,0,,,,,0,17,17,8,,,,,,,,,,,,,,,,,,,,,867.7668092489475,867.7668092489475,right,0,0.3837664369493723,,,,,,15,20,K,N,2023-01-05_12h07.45.874,Flanker,2022.2.4,None,
Przez najbliższe 5 minut proszę kolorować otrzymaną kolorwankę z mandalą. Naciśnij spację aby zacząć odmierzać czas,,-->--,0,1,1,0,,,,,0,18,18,57,,,,,,,,,,,,,,,,,,,,,869.1604894310003,869.1604894310003,right,0,0.32712532905861735,,,,,,15,20,K,N,2023-01-05_12h07.45.874,Flanker,2022.2.4,None,
Przez najbliższe 5 minut proszę kolorować otrzymaną kolorwankę z mandalą. Naciśnij spację aby zacząć odmierzać czas,,<<><<,0,1,1,0,,,,,0,19,19,26,,,,,,,,,,,,,,,,,,,,,870.498965535895,870.498965535895,right,0,0.5445606249850243,,,,,,15,20,K,N,2023-01-05_12h07.45.874,Flanker,2022.2.4,None,
Przez najbliższe 5 minut proszę kolorować otrzymaną kolorwankę z mandalą. Naciśnij spację aby zacząć odmierzać czas,,>><>>,0,1,1,0,,,,,0,20,20,30,,,,,,,,,,,,,,,,,,,,,872.0490230839932,872.0490230839932,right,0,0.31732813094276935,,,,,,15,20,K,N,2023-01-05_12h07.45.874,Flanker,2022.2.4,None,
Przez najbliższe 5 minut proszę kolorować otrzymaną kolorwankę z mandalą. Naciśnij spację aby zacząć odmierzać czas,,>><>>,0,1,1,0,,,,,0,21,21,36,,,,,,,,,,,,,,,,,,,,,873.3719771759352,873.3719771759352,left,0,0.8784519119653851,,,,,,15,20,K,N,2023-01-05_12h07.45.874,Flanker,2022.2.4,None,
Przez najbliższe 5 minut proszę kolorować otrzymaną kolorwankę z mandalą. Naciśnij spację aby zacząć odmierzać czas,,--<--,0,1,1,0,,,,,0,22,22,41,,,,,,,,,,,,,,,,,,,,,875.2614190349123,875.2614190349123,left,0,0.42782796500250697,,,,,,15,20,K,N,2023-01-05_12h07.45.874,Flanker,2022.2.4,None,
Przez najbliższe 5 minut proszę kolorować otrzymaną kolorwankę z mandalą. Naciśnij spację aby zacząć odmierzać czas,,<<><<,0,1,1,0,,,,,0,23,23,25,,,,,,,,,,,,,,,,,,,,,876.6990006410051,876.6990006410051,right,0,0.5666480920044705,,,,,,15,20,K,N,2023-01-05_12h07.45.874,Flanker,2022.2.4,None,
Przez najbliższe 5 minut proszę kolorować otrzymaną kolorwankę z mandalą. Naciśnij spację aby zacząć odmierzać czas,,--<--,0,1,1,0,,,,,0,24,24,44,,,,,,,,,,,,,,,,,,,,,878.2803692088928,878.2803692088928,left,0,0.38004268903750926,,,,,,15,20,K,N,2023-01-05_12h07.45.874,Flanker,2022.2.4,None,
Przez najbliższe 5 minut proszę kolorować otrzymaną kolorwankę z mandalą. Naciśnij spację aby zacząć odmierzać czas,,--<--,0,1,1,0,,,,,0,25,25,47,,,,,,,,,,,,,,,,,,,,,879.6664609739091,879.6664609739091,left,0,0.40488346898928285,,,,,,15,20,K,N,2023-01-05_12h07.45.874,Flanker,2022.2.4,None,
Przez najbliższe 5 minut proszę kolorować otrzymaną kolorwankę z mandalą. Naciśnij spację aby zacząć odmierzać czas,,--<--,0,1,1,0,,,,,0,26,26,45,,,,,,,,,,,,,,,,,,,,,881.086512130918,881.086512130918,left,0,0.3927615260472521,,,,,,15,20,K,N,2023-01-05_12h07.45.874,Flanker,2022.2.4,None,
Przez najbliższe 5 minut proszę kolorować otrzymaną kolorwankę z mandalą. Naciśnij spację aby zacząć odmierzać czas,,<<<<<,0,1,1,0,,,,,0,27,27,13,,,,,,,,,,,,,,,,,,,,,882.4818343399093,882.4818343399093,left,0,0.44947106298059225,,,,,,15,20,K,N,2023-01-05_12h07.45.874,Flanker,2022.2.4,None,
Przez najbliższe 5 minut proszę kolorować otrzymaną kolorwankę z mandalą. Naciśnij spację aby zacząć odmierzać czas,,<<><<,0,1,1,0,,,,,0,28,28,23,,,,,,,,,,,,,,,,,,,,,883.9380670170067,883.9380670170067,right,0,0.5161611880175769,,,,,,15,20,K,N,2023-01-05_12h07.45.874,Flanker,2022.2.4,None,
Przez najbliższe 5 minut proszę kolorować otrzymaną kolorwankę z mandalą. Naciśnij spację aby zacząć odmierzać czas,,<<><<,0,1,1,0,,,,,0,29,29,20,,,,,,,,,,,,,,,,,,,,,885.4665845559211,885.4665845559211,right,0,0.4786993459565565,,,,,,15,20,K,N,2023-01-05_12h07.45.874,Flanker,2022.2.4,None,
Przez najbliższe 5 minut proszę kolorować otrzymaną kolorwankę z mandalą. Naciśnij spację aby zacząć odmierzać czas,,-->--,0,1,1,0,,,,,0,30,30,55,,,,,,,,,,,,,,,,,,,,,886.9533876639325,886.9533876639325,right,0,0.35660568403545767,,,,,,15,20,K,N,2023-01-05_12h07.45.874,Flanker,2022.2.4,None,
Przez najbliższe 5 minut proszę kolorować otrzymaną kolorwankę z mandalą. Naciśnij spację aby zacząć odmierzać czas,,<<<<<,0,1,1,0,,,,,0,31,31,18,,,,,,,,,,,,,,,,,,,,,888.3150584779214,888.3150584779214,left,0,0.49695428798440844,,,,,,15,20,K,N,2023-01-05_12h07.45.874,Flanker,2022.2.4,None,
Przez najbliższe 5 minut proszę kolorować otrzymaną kolorwankę z mandalą. Naciśnij spację aby zacząć odmierzać czas,,>>>>>,0,1,1,0,,,,,0,32,32,3,,,,,,,,,,,,,,,,,,,,,889.8301325399661,889.8301325399661,right,0,0.3239683359861374,,,,,,15,20,K,N,2023-01-05_12h07.45.874,Flanker,2022.2.4,None,
Przez najbliższe 5 minut proszę kolorować otrzymaną kolorwankę z mandalą. Naciśnij spację aby zacząć odmierzać czas,,--<--,0,1,1,0,,,,,0,33,33,42,,,,,,,,,,,,,,,,,,,,,891.1596571719274,891.1596571719274,left,0,0.4294335349695757,,,,,,15,20,K,N,2023-01-05_12h07.45.874,Flanker,2022.2.4,None,
Przez najbliższe 5 minut proszę kolorować otrzymaną kolorwankę z mandalą. Naciśnij spację aby zacząć odmierzać czas,,>><>>,0,1,1,0,,,,,0,34,34,39,,,,,,,,,,,,,,,,,,,,,892.5934593799757,892.5934593799757,left,0,0.571557853021659,,,,,,15,20,K,N,2023-01-05_12h07.45.874,Flanker,2022.2.4,None,
Przez najbliższe 5 minut proszę kolorować otrzymaną kolorwankę z mandalą. Naciśnij spację aby zacząć odmierzać czas,,>>>>> ,0,1,1,0,,,,,0,35,35,5,,,,,,,,,,,,,,,,,,,,,894.1703310409794,894.1703310409794,right,0,0.36770502803847194,,,,,,15,20,K,N,2023-01-05_12h07.45.874,Flanker,2022.2.4,None,
Przez najbliższe 5 minut proszę kolorować otrzymaną kolorwankę z mandalą. Naciśnij spację aby zacząć odmierzać czas,,<<><<,0,1,1,0,,,,,0,36,36,21,,,,,,,,,,,,,,,,,,,,,895.5461730919778,895.5461730919778,right,0,0.5098843940068036,,,,,,15,20,K,N,2023-01-05_12h07.45.874,Flanker,2022.2.4,None,
Przez najbliższe 5 minut proszę kolorować otrzymaną kolorwankę z mandalą. Naciśnij spację aby zacząć odmierzać czas,,<<<<<,0,1,1,0,,,,,0,37,37,11,,,,,,,,,,,,,,,,,,,,,897.0768321258947,897.0768321258947,left,0,0.4141582789598033,,,,,,15,20,K,N,2023-01-05_12h07.45.874,Flanker,2022.2.4,None,
Przez najbliższe 5 minut proszę kolorować otrzymaną kolorwankę z mandalą. Naciśnij spację aby zacząć odmierzać czas,,<<<<<,0,1,1,0,,,,,0,38,38,19,,,,,,,,,,,,,,,,,,,,,898.4930997279007,898.4930997279007,left,0,0.33086092909798026,,,,,,15,20,K,N,2023-01-05_12h07.45.874,Flanker,2022.2.4,None,
Przez najbliższe 5 minut proszę kolorować otrzymaną kolorwankę z mandalą. Naciśnij spację aby zacząć odmierzać czas,,-->--,0,1,1,0,,,,,0,39,39,53,,,,,,,,,,,,,,,,,,,,,899.8368628249737,899.8368628249737,right,0,0.35787532501854,,,,,,15,20,K,N,2023-01-05_12h07.45.874,Flanker,2022.2.4,None,
Przez najbliższe 5 minut proszę kolorować otrzymaną kolorwankę z mandalą. Naciśnij spację aby zacząć odmierzać czas,,>><>>,0,1,1,0,,,,,0,40,40,31,,,,,,,,,,,,,,,,,,,,,901.2098666549427,901.2098666549427,left,0,0.5430690509965643,,,,,,15,20,K,N,2023-01-05_12h07.45.874,Flanker,2022.2.4,None,
Przez najbliższe 5 minut proszę kolorować otrzymaną kolorwankę z mandalą. Naciśnij spację aby zacząć odmierzać czas,,<<<<<,0,1,1,0,,,,,0,41,41,12,,,,,,,,,,,,,,,,,,,,,902.7656519339653,902.7656519339653,left,0,0.431094535975717,,,,,,15,20,K,N,2023-01-05_12h07.45.874,Flanker,2022.2.4,None,
Przez najbliższe 5 minut proszę kolorować otrzymaną kolorwankę z mandalą. Naciśnij spację aby zacząć odmierzać czas,,>><>>,0,1,1,0,,,,,0,42,42,33,,,,,,,,,,,,,,,,,,,,,904.1973330109613,904.1973330109613,left,0,0.5085256759775802,,,,,,15,20,K,N,2023-01-05_12h07.45.874,Flanker,2022.2.4,None,
Przez najbliższe 5 minut proszę kolorować otrzymaną kolorwankę z mandalą. Naciśnij spację aby zacząć odmierzać czas,,<<<<<,0,1,1,0,,,,,0,43,43,17,,,,,,,,,,,,,,,,,,,,,905.7038164869882,905.7038164869882,left,0,0.33085217501502484,,,,,,15,20,K,N,2023-01-05_12h07.45.874,Flanker,2022.2.4,None,
Przez najbliższe 5 minut proszę kolorować otrzymaną kolorwankę z mandalą. Naciśnij spację aby zacząć odmierzać czas,,<<<<<,0,1,1,0,,,,,0,44,44,16,,,,,,,,,,,,,,,,,,,,,907.0431863788981,907.0431863788981,left,0,0.3664388930192217,,,,,,15,20,K,N,2023-01-05_12h07.45.874,Flanker,2022.2.4,None,
Przez najbliższe 5 minut proszę kolorować otrzymaną kolorwankę z mandalą. Naciśnij spację aby zacząć odmierzać czas,,>>>>>,0,1,1,0,,,,,0,45,45,9,,,,,,,,,,,,,,,,,,,,,908.4296182419639,908.4296182419639,right,0,0.43506082601379603,,,,,,15,20,K,N,2023-01-05_12h07.45.874,Flanker,2022.2.4,None,
Przez najbliższe 5 minut proszę kolorować otrzymaną kolorwankę z mandalą. Naciśnij spację aby zacząć odmierzać czas,,-->--,0,1,1,0,,,,,0,46,46,50,,,,,,,,,,,,,,,,,,,,,909.8771801060066,909.8771801060066,right,0,0.34352841798681766,,,,,,15,20,K,N,2023-01-05_12h07.45.874,Flanker,2022.2.4,None,
Przez najbliższe 5 minut proszę kolorować otrzymaną kolorwankę z mandalą. Naciśnij spację aby zacząć odmierzać czas,,-->--,0,1,1,0,,,,,0,47,47,54,,,,,,,,,,,,,,,,,,,,,911.2290781419724,911.2290781419724,right,0,0.34857045498210937,,,,,,15,20,K,N,2023-01-05_12h07.45.874,Flanker,2022.2.4,None,
Przez najbliższe 5 minut proszę kolorować otrzymaną kolorwankę z mandalą. Naciśnij spację aby zacząć odmierzać czas,,<<><<,0,1,1,0,,,,,0,48,48,29,,,,,,,,,,,,,,,,,,,,,912.5766856028931,912.5766856028931,right,0,0.6317781900288537,,,,,,15,20,K,N,2023-01-05_12h07.45.874,Flanker,2022.2.4,None,
Przez najbliższe 5 minut proszę kolorować otrzymaną kolorwankę z mandalą. Naciśnij spację aby zacząć odmierzać czas,,>>>>>,0,1,1,0,,,,,0,49,49,7,,,,,,,,,,,,,,,,,,,,,914.2047710029874,914.2047710029874,right,0,0.3538350029848516,,,,,,15,20,K,N,2023-01-05_12h07.45.874,Flanker,2022.2.4,None,
Przez najbliższe 5 minut proszę kolorować otrzymaną kolorwankę z mandalą. Naciśnij spację aby zacząć odmierzać czas,,>><>>,0,1,1,0,,,,,0,50,50,38,,,,,,,,,,,,,,,,,,,,,915.5661804119591,915.5661804119591,left,0,0.5133921650703996,,,,,,15,20,K,N,2023-01-05_12h07.45.874,Flanker,2022.2.4,None,
Przez najbliższe 5 minut proszę kolorować otrzymaną kolorwankę z mandalą. Naciśnij spację aby zacząć odmierzać czas,,--<--,0,1,1,0,,,,,0,51,51,40,,,,,,,,,,,,,,,,,,,,,917.0844112869818,917.0844112869818,left,0,0.487087219953537,,,,,,15,20,K,N,2023-01-05_12h07.45.874,Flanker,2022.2.4,None,
Przez najbliższe 5 minut proszę kolorować otrzymaną kolorwankę z mandalą. Naciśnij spację aby zacząć odmierzać czas,,<<<<<,0,1,1,0,,,,,0,52,52,10,,,,,,,,,,,,,,,,,,,,,918.5759443549905,918.5759443549905,left,0,0.3714826659997925,,,,,,15,20,K,N,2023-01-05_12h07.45.874,Flanker,2022.2.4,None,
Przez najbliższe 5 minut proszę kolorować otrzymaną kolorwankę z mandalą. Naciśnij spację aby zacząć odmierzać czas,,>><>>,0,1,1,0,,,,,0,53,53,35,,,,,,,,,,,,,,,,,,,,,919.9439352769405,919.9439352769405,left,0,0.5294914740370587,,,,,,15,20,K,N,2023-01-05_12h07.45.874,Flanker,2022.2.4,None,
Przez najbliższe 5 minut proszę kolorować otrzymaną kolorwankę z mandalą. Naciśnij spację aby zacząć odmierzać czas,,-->--,0,1,1,0,,,,,0,54,54,59,,,,,,,,,,,,,,,,,,,,,921.4868721939856,921.4868721939856,right,0,0.4265239449450746,,,,,,15,20,K,N,2023-01-05_12h07.45.874,Flanker,2022.2.4,None,
Przez najbliższe 5 minut proszę kolorować otrzymaną kolorwankę z mandalą. Naciśnij spację aby zacząć odmierzać czas,,<<><<,0,1,1,0,,,,,0,55,55,27,,,,,,,,,,,,,,,,,,,,,922.9266162469285,922.9266162469285,right,0,0.5267428799998015,,,,,,15,20,K,N,2023-01-05_12h07.45.874,Flanker,2022.2.4,None,
Przez najbliższe 5 minut proszę kolorować otrzymaną kolorwankę z mandalą. Naciśnij spację aby zacząć odmierzać czas,,<<<<<,0,1,1,0,,,,,0,56,56,15,,,,,,,,,,,,,,,,,,,,,924.4766285869991,924.4766285869991,left,0,0.3827787130139768,,,,,,15,20,K,N,2023-01-05_12h07.45.874,Flanker,2022.2.4,None,
Przez najbliższe 5 minut proszę kolorować otrzymaną kolorwankę z mandalą. Naciśnij spację aby zacząć odmierzać czas,,--<--,0,1,1,0,,,,,0,57,57,43,,,,,,,,,,,,,,,,,,,,,925.8703188810032,925.8703188810032,left,0,0.4140126759884879,,,,,,15,20,K,N,2023-01-05_12h07.45.874,Flanker,2022.2.4,None,
Przez najbliższe 5 minut proszę kolorować otrzymaną kolorwankę z mandalą. Naciśnij spację aby zacząć odmierzać czas,,<<<<<,0,1,1,0,,,,,0,58,58,14,,,,,,,,,,,,,,,,,,,,,927.28933597391,927.28933597391,left,0,0.36103330994956195,,,,,,15,20,K,N,2023-01-05_12h07.45.874,Flanker,2022.2.4,None,
Przez najbliższe 5 minut proszę kolorować otrzymaną kolorwankę z mandalą. Naciśnij spację aby zacząć odmierzać czas,,--<--,0,1,1,0,,,,,0,59,59,48,,,,,,,,,,,,,,,,,,,,,928.6597265729215,928.6597265729215,left,0,0.30049859394785017,,,,,,15,20,K,N,2023-01-05_12h07.45.874,Flanker,2022.2.4,None,
Przez najbliższe 5 minut proszę kolorować otrzymaną kolorwankę z mandalą. Naciśnij spację aby zacząć odmierzać czas,,,0,1,1,0,,,,,,,,,,,,,,,,,,,,,,,,,,,,,,,,,,,,,,,15,20,K,N,2023-01-05_12h07.45.874,Flanker,2022.2.4,None,
,,,,,,,,,,,,,,,,,,,,,,,,,,,,,,,,,,,,,,,,,929.9708694469882,929.9708694469882,space,2.1121440270217136,15,20,K,N,2023-01-05_12h07.45.874,Flanker,2022.2.4,None,
