kolorowanka,Example,Stimuli,proby.thisRepN,proby.thisTrialN,proby.thisN,proby.thisIndex,zapoznanie.thisRepN,zapoznanie.thisTrialN,zapoznanie.thisN,zapoznanie.thisIndex,Warunki.thisRepN,Warunki.thisTrialN,Warunki.thisN,Warunki.thisIndex,Intro.started,Intro_resp.started,Intro_resp.keys,Intro_resp.rt,Kolorowanie1.started,starttt.started,starttt.keys,starttt.rt,koloruj.started,Instruction.started,key_resp.started,key_resp.keys,key_resp.rt,Wyjasnienie.started,text.started,odp_przyk.started,odp_przyk.keys,odp_przyk.corr,odp_przyk.rt,zapo.started,Zadanie.started,Odp.started,Odp.keys,Odp.corr,Odp.rt,zapo.stopped,thanks.started,KONIEC.started,KONIEC.keys,KONIEC.rt,participant,Wiek (w latach),Płeć (K/M),Entropia,date,expName,psychopyVersion,frameRate,
,,,,,,,,,,,,,,,24.249225174076900,26.234239434008500,space,10.317055316991200,,,,,,,,,,,,,,,,,,,,,,,,,,,19,18,K,W,2023-01-05_13h23.37.602,Flanker,2022.2.4,None,
Przez najbliższe 5 minut proszę kolorować otrzymaną pustą kartkę. Naciśnij spację aby zacząć odmierzać czas,--<--,,0,0,0,1,0,0,0,4,,,,,,,,,36.63761092699130,37.55794374505060,space,12.07402641105,49.64885723905170,349.666019994067,351.64549248002000,space,36.348491138080100,388.0273110329870,397.0067351460460,397.0067351460460,left,0,10.75286645500460,,,,,,,,,,,,19,18,K,W,2023-01-05_13h23.37.602,Flanker,2022.2.4,None,
Przez najbliższe 5 minut proszę kolorować otrzymaną pustą kartkę. Naciśnij spację aby zacząć odmierzać czas,>>>>>,,0,0,0,1,0,1,1,1,,,,,,,,,,,,,,,,,,,408.77074511908000,408.77074511908000,right,0,0.9668851969763640,,,,,,,,,,,,19,18,K,W,2023-01-05_13h23.37.602,Flanker,2022.2.4,None,
Przez najbliższe 5 minut proszę kolorować otrzymaną pustą kartkę. Naciśnij spację aby zacząć odmierzać czas,>><>>,,0,0,0,1,0,2,2,3,,,,,,,,,,,,,,,,,,,410.76351886207700,410.76351886207700,left,0,2.35609930800274,,,,,,,,,,,,19,18,K,W,2023-01-05_13h23.37.602,Flanker,2022.2.4,None,
Przez najbliższe 5 minut proszę kolorować otrzymaną pustą kartkę. Naciśnij spację aby zacząć odmierzać czas,-->--,,0,0,0,1,0,3,3,5,,,,,,,,,,,,,,,,,,,414.1283784870760,414.1283784870760,right,0,1.1281783350277700,,,,,,,,,,,,19,18,K,W,2023-01-05_13h23.37.602,Flanker,2022.2.4,None,
Przez najbliższe 5 minut proszę kolorować otrzymaną pustą kartkę. Naciśnij spację aby zacząć odmierzać czas,<<><<,,0,0,0,1,0,4,4,2,,,,,,,,,,,,,,,,,,,416.27197322505500,416.27197322505500,left,0,1.1384777639759700,,,,,,,,,,,,19,18,K,W,2023-01-05_13h23.37.602,Flanker,2022.2.4,None,
Przez najbliższe 5 minut proszę kolorować otrzymaną pustą kartkę. Naciśnij spację aby zacząć odmierzać czas,<<<<<,,0,0,0,1,0,5,5,0,,,,,,,,,,,,,,,,,,,418.4245721530170,418.4245721530170,left,0,1.0488882350036900,,,,,,,,,,,,19,18,K,W,2023-01-05_13h23.37.602,Flanker,2022.2.4,None,
Przez najbliższe 5 minut proszę kolorować otrzymaną pustą kartkę. Naciśnij spację aby zacząć odmierzać czas,,>><>>,0,0,0,1,,,,,0,0,0,36,,,,,,,,,,,,,,,,,,,,420.4798920759930,428.4831401940900,428.4831401940900,left,0,0.8592928189318630,427.49189401301600,,,,,19,18,K,W,2023-01-05_13h23.37.602,Flanker,2022.2.4,None,
Przez najbliższe 5 minut proszę kolorować otrzymaną pustą kartkę. Naciśnij spację aby zacząć odmierzać czas,,-->--,0,0,0,1,,,,,0,1,1,56,,,,,,,,,,,,,,,,,,,,,430.3582456270230,430.3582456270230,right,0,0.4067836799658840,,,,,,19,18,K,W,2023-01-05_13h23.37.602,Flanker,2022.2.4,None,
Przez najbliższe 5 minut proszę kolorować otrzymaną pustą kartkę. Naciśnij spację aby zacząć odmierzać czas,,>>>>>,0,0,0,1,,,,,0,2,2,2,,,,,,,,,,,,,,,,,,,,,431.7675030010290,431.7675030010290,right,0,0.49059568904340300,,,,,,19,18,K,W,2023-01-05_13h23.37.602,Flanker,2022.2.4,None,
Przez najbliższe 5 minut proszę kolorować otrzymaną pustą kartkę. Naciśnij spację aby zacząć odmierzać czas,,>><>>,0,0,0,1,,,,,0,3,3,35,,,,,,,,,,,,,,,,,,,,,433.2791124250510,433.2791124250510,left,0,0.582850519916974,,,,,,19,18,K,W,2023-01-05_13h23.37.602,Flanker,2022.2.4,None,
Przez najbliższe 5 minut proszę kolorować otrzymaną pustą kartkę. Naciśnij spację aby zacząć odmierzać czas,,<<<<<,0,0,0,1,,,,,0,4,4,18,,,,,,,,,,,,,,,,,,,,,434.884039932047,434.884039932047,left,0,0.660032605053857,,,,,,19,18,K,W,2023-01-05_13h23.37.602,Flanker,2022.2.4,None,
Przez najbliższe 5 minut proszę kolorować otrzymaną pustą kartkę. Naciśnij spację aby zacząć odmierzać czas,,<<><<,0,0,0,1,,,,,0,5,5,23,,,,,,,,,,,,,,,,,,,,,436.5463013210100,436.5463013210100,right,0,0.43169569794554300,,,,,,19,18,K,W,2023-01-05_13h23.37.602,Flanker,2022.2.4,None,
Przez najbliższe 5 minut proszę kolorować otrzymaną pustą kartkę. Naciśnij spację aby zacząć odmierzać czas,,--<--,0,0,0,1,,,,,0,6,6,42,,,,,,,,,,,,,,,,,,,,,437.9951903820040,437.9951903820040,left,0,0.4898411970352750,,,,,,19,18,K,W,2023-01-05_13h23.37.602,Flanker,2022.2.4,None,
Przez najbliższe 5 minut proszę kolorować otrzymaną pustą kartkę. Naciśnij spację aby zacząć odmierzać czas,,--<--,0,0,0,1,,,,,0,7,7,46,,,,,,,,,,,,,,,,,,,,,439.50248086301100,439.50248086301100,left,0,0.5924830579897390,,,,,,19,18,K,W,2023-01-05_13h23.37.602,Flanker,2022.2.4,None,
Przez najbliższe 5 minut proszę kolorować otrzymaną pustą kartkę. Naciśnij spację aby zacząć odmierzać czas,,-->--,0,0,0,1,,,,,0,8,8,54,,,,,,,,,,,,,,,,,,,,,441.1048520930340,441.1048520930340,right,0,0.3099922500550750,,,,,,19,18,K,W,2023-01-05_13h23.37.602,Flanker,2022.2.4,None,
Przez najbliższe 5 minut proszę kolorować otrzymaną pustą kartkę. Naciśnij spację aby zacząć odmierzać czas,,--<--,0,0,0,1,,,,,0,9,9,43,,,,,,,,,,,,,,,,,,,,,442.42726735502900,442.42726735502900,left,0,0.29139483091421400,,,,,,19,18,K,W,2023-01-05_13h23.37.602,Flanker,2022.2.4,None,
Przez najbliższe 5 minut proszę kolorować otrzymaną pustą kartkę. Naciśnij spację aby zacząć odmierzać czas,,>><>>,0,0,0,1,,,,,0,10,10,39,,,,,,,,,,,,,,,,,,,,,443.73852511902800,443.73852511902800,right,0,0.3433979949913920,,,,,,19,18,K,W,2023-01-05_13h23.37.602,Flanker,2022.2.4,None,
Przez najbliższe 5 minut proszę kolorować otrzymaną pustą kartkę. Naciśnij spację aby zacząć odmierzać czas,,<<><<,0,0,0,1,,,,,0,11,11,27,,,,,,,,,,,,,,,,,,,,,445.1031924280110,445.1031924280110,right,0,0.5426554889418190,,,,,,19,18,K,W,2023-01-05_13h23.37.602,Flanker,2022.2.4,None,
Przez najbliższe 5 minut proszę kolorować otrzymaną pustą kartkę. Naciśnij spację aby zacząć odmierzać czas,,<<<<<,0,0,0,1,,,,,0,12,12,15,,,,,,,,,,,,,,,,,,,,,446.655606610002,446.655606610002,left,0,0.4852105670142920,,,,,,19,18,K,W,2023-01-05_13h23.37.602,Flanker,2022.2.4,None,
Przez najbliższe 5 minut proszę kolorować otrzymaną pustą kartkę. Naciśnij spację aby zacząć odmierzać czas,,>><>>,0,0,0,1,,,,,0,13,13,37,,,,,,,,,,,,,,,,,,,,,448.1636009759970,448.1636009759970,left,0,0.5583912440342830,,,,,,19,18,K,W,2023-01-05_13h23.37.602,Flanker,2022.2.4,None,
Przez najbliższe 5 minut proszę kolorować otrzymaną pustą kartkę. Naciśnij spację aby zacząć odmierzać czas,,-->--,0,0,0,1,,,,,0,14,14,50,,,,,,,,,,,,,,,,,,,,,449.73294704803300,449.73294704803300,right,0,0.4778730919351800,,,,,,19,18,K,W,2023-01-05_13h23.37.602,Flanker,2022.2.4,None,
Przez najbliższe 5 minut proszę kolorować otrzymaną pustą kartkę. Naciśnij spację aby zacząć odmierzać czas,,>><>>,0,0,0,1,,,,,0,15,15,34,,,,,,,,,,,,,,,,,,,,,451.23275994998400,451.23275994998400,left,0,0.5298827700316910,,,,,,19,18,K,W,2023-01-05_13h23.37.602,Flanker,2022.2.4,None,
Przez najbliższe 5 minut proszę kolorować otrzymaną pustą kartkę. Naciśnij spację aby zacząć odmierzać czas,,>>>>>,0,0,0,1,,,,,0,16,16,9,,,,,,,,,,,,,,,,,,,,,452.7798170860620,452.7798170860620,right,0,0.5640268049901350,,,,,,19,18,K,W,2023-01-05_13h23.37.602,Flanker,2022.2.4,None,
Przez najbliższe 5 minut proszę kolorować otrzymaną pustą kartkę. Naciśnij spację aby zacząć odmierzać czas,,<<><<,0,0,0,1,,,,,0,17,17,26,,,,,,,,,,,,,,,,,,,,,454.34927260200500,454.34927260200500,right,0,0.7013759409310300,,,,,,19,18,K,W,2023-01-05_13h23.37.602,Flanker,2022.2.4,None,
Przez najbliższe 5 minut proszę kolorować otrzymaną pustą kartkę. Naciśnij spację aby zacząć odmierzać czas,,>>>>>,0,0,0,1,,,,,0,18,18,6,,,,,,,,,,,,,,,,,,,,,456.0674026249910,456.0674026249910,right,0,0.4280851810472090,,,,,,19,18,K,W,2023-01-05_13h23.37.602,Flanker,2022.2.4,None,
Przez najbliższe 5 minut proszę kolorować otrzymaną pustą kartkę. Naciśnij spację aby zacząć odmierzać czas,,<<<<<,0,0,0,1,,,,,0,19,19,10,,,,,,,,,,,,,,,,,,,,,457.5086117220340,457.5086117220340,left,0,0.33081360592041200,,,,,,19,18,K,W,2023-01-05_13h23.37.602,Flanker,2022.2.4,None,
Przez najbliższe 5 minut proszę kolorować otrzymaną pustą kartkę. Naciśnij spację aby zacząć odmierzać czas,,<<><<,0,0,0,1,,,,,0,20,20,20,,,,,,,,,,,,,,,,,,,,,458.8551882300530,458.8551882300530,right,0,0.6043599409749730,,,,,,19,18,K,W,2023-01-05_13h23.37.602,Flanker,2022.2.4,None,
Przez najbliższe 5 minut proszę kolorować otrzymaną pustą kartkę. Naciśnij spację aby zacząć odmierzać czas,,>>>>> ,0,0,0,1,,,,,0,21,21,5,,,,,,,,,,,,,,,,,,,,,460.4624905930830,460.4624905930830,right,0,0.578054744983092,,,,,,19,18,K,W,2023-01-05_13h23.37.602,Flanker,2022.2.4,None,
Przez najbliższe 5 minut proszę kolorować otrzymaną pustą kartkę. Naciśnij spację aby zacząć odmierzać czas,,>><>>,0,0,0,1,,,,,0,22,22,33,,,,,,,,,,,,,,,,,,,,,462.05507750902300,462.05507750902300,left,0,0.6943906020605940,,,,,,19,18,K,W,2023-01-05_13h23.37.602,Flanker,2022.2.4,None,
Przez najbliższe 5 minut proszę kolorować otrzymaną pustą kartkę. Naciśnij spację aby zacząć odmierzać czas,,<<<<<,0,0,0,1,,,,,0,23,23,16,,,,,,,,,,,,,,,,,,,,,463.7548815780320,463.7548815780320,left,0,0.5215642399853100,,,,,,19,18,K,W,2023-01-05_13h23.37.602,Flanker,2022.2.4,None,
Przez najbliższe 5 minut proszę kolorować otrzymaną pustą kartkę. Naciśnij spację aby zacząć odmierzać czas,,<<><<,0,0,0,1,,,,,0,24,24,29,,,,,,,,,,,,,,,,,,,,,465.28828606708000,465.28828606708000,right,0,0.5201608710922300,,,,,,19,18,K,W,2023-01-05_13h23.37.602,Flanker,2022.2.4,None,
Przez najbliższe 5 minut proszę kolorować otrzymaną pustą kartkę. Naciśnij spację aby zacząć odmierzać czas,,>>>>>,0,0,0,1,,,,,0,25,25,3,,,,,,,,,,,,,,,,,,,,,466.84419846499800,466.84419846499800,right,0,0.8330494590336460,,,,,,19,18,K,W,2023-01-05_13h23.37.602,Flanker,2022.2.4,None,
Przez najbliższe 5 minut proszę kolorować otrzymaną pustą kartkę. Naciśnij spację aby zacząć odmierzać czas,,<<<<<,0,0,0,1,,,,,0,26,26,19,,,,,,,,,,,,,,,,,,,,,468.7039085479920,468.7039085479920,left,0,0.4994542230851950,,,,,,19,18,K,W,2023-01-05_13h23.37.602,Flanker,2022.2.4,None,
Przez najbliższe 5 minut proszę kolorować otrzymaną pustą kartkę. Naciśnij spację aby zacząć odmierzać czas,,<<<<<,0,0,0,1,,,,,0,27,27,12,,,,,,,,,,,,,,,,,,,,,470.22069171106000,470.22069171106000,left,0,0.417348172981292,,,,,,19,18,K,W,2023-01-05_13h23.37.602,Flanker,2022.2.4,None,
Przez najbliższe 5 minut proszę kolorować otrzymaną pustą kartkę. Naciśnij spację aby zacząć odmierzać czas,,-->--,0,0,0,1,,,,,0,28,28,57,,,,,,,,,,,,,,,,,,,,,471.65466146403900,471.65466146403900,right,0,0.4315588909666990,,,,,,19,18,K,W,2023-01-05_13h23.37.602,Flanker,2022.2.4,None,
Przez najbliższe 5 minut proszę kolorować otrzymaną pustą kartkę. Naciśnij spację aby zacząć odmierzać czas,,<<><<,0,0,0,1,,,,,0,29,29,24,,,,,,,,,,,,,,,,,,,,,473.09428266005100,473.09428266005100,right,0,0.6750186469871550,,,,,,19,18,K,W,2023-01-05_13h23.37.602,Flanker,2022.2.4,None,
Przez najbliższe 5 minut proszę kolorować otrzymaną pustą kartkę. Naciśnij spację aby zacząć odmierzać czas,,-->--,0,0,0,1,,,,,0,30,30,59,,,,,,,,,,,,,,,,,,,,,474.79401712608500,474.79401712608500,right,0,0.3942623700713740,,,,,,19,18,K,W,2023-01-05_13h23.37.602,Flanker,2022.2.4,None,
Przez najbliższe 5 minut proszę kolorować otrzymaną pustą kartkę. Naciśnij spację aby zacząć odmierzać czas,,--<--,0,0,0,1,,,,,0,31,31,48,,,,,,,,,,,,,,,,,,,,,476.19989856600300,476.19989856600300,left,0,0.4182169029954820,,,,,,19,18,K,W,2023-01-05_13h23.37.602,Flanker,2022.2.4,None,
Przez najbliższe 5 minut proszę kolorować otrzymaną pustą kartkę. Naciśnij spację aby zacząć odmierzać czas,,<<><<,0,0,0,1,,,,,0,32,32,21,,,,,,,,,,,,,,,,,,,,,477.6284520269840,477.6284520269840,right,0,0.45164972299244300,,,,,,19,18,K,W,2023-01-05_13h23.37.602,Flanker,2022.2.4,None,
Przez najbliższe 5 minut proszę kolorować otrzymaną pustą kartkę. Naciśnij spację aby zacząć odmierzać czas,,-->--,0,0,0,1,,,,,0,33,33,58,,,,,,,,,,,,,,,,,,,,,479.0993228680450,479.0993228680450,right,0,0.6739219770533960,,,,,,19,18,K,W,2023-01-05_13h23.37.602,Flanker,2022.2.4,None,
Przez najbliższe 5 minut proszę kolorować otrzymaną pustą kartkę. Naciśnij spację aby zacząć odmierzać czas,,-->--,0,0,0,1,,,,,0,34,34,52,,,,,,,,,,,,,,,,,,,,,480.7918208640770,480.7918208640770,right,0,0.3382295500487090,,,,,,19,18,K,W,2023-01-05_13h23.37.602,Flanker,2022.2.4,None,
Przez najbliższe 5 minut proszę kolorować otrzymaną pustą kartkę. Naciśnij spację aby zacząć odmierzać czas,,>>>>>,0,0,0,1,,,,,0,35,35,1,,,,,,,,,,,,,,,,,,,,,482.13813669700200,482.13813669700200,right,0,0.3869032959919420,,,,,,19,18,K,W,2023-01-05_13h23.37.602,Flanker,2022.2.4,None,
Przez najbliższe 5 minut proszę kolorować otrzymaną pustą kartkę. Naciśnij spację aby zacząć odmierzać czas,,>>>>>,0,0,0,1,,,,,0,36,36,8,,,,,,,,,,,,,,,,,,,,,483.5544617200500,483.5544617200500,right,0,0.38562714599538600,,,,,,19,18,K,W,2023-01-05_13h23.37.602,Flanker,2022.2.4,None,
Przez najbliższe 5 minut proszę kolorować otrzymaną pustą kartkę. Naciśnij spację aby zacząć odmierzać czas,,<<><<,0,0,0,1,,,,,0,37,37,25,,,,,,,,,,,,,,,,,,,,,484.95121369999800,484.95121369999800,left,0,0.3628510929411280,,,,,,19,18,K,W,2023-01-05_13h23.37.602,Flanker,2022.2.4,None,
Przez najbliższe 5 minut proszę kolorować otrzymaną pustą kartkę. Naciśnij spację aby zacząć odmierzać czas,,<<<<<,0,0,0,1,,,,,0,38,38,13,,,,,,,,,,,,,,,,,,,,,486.33292337099600,486.33292337099600,left,0,0.6429392969002950,,,,,,19,18,K,W,2023-01-05_13h23.37.602,Flanker,2022.2.4,None,
Przez najbliższe 5 minut proszę kolorować otrzymaną pustą kartkę. Naciśnij spację aby zacząć odmierzać czas,,--<--,0,0,0,1,,,,,0,39,39,49,,,,,,,,,,,,,,,,,,,,,487.98814995004800,487.98814995004800,left,0,0.5477226390503350,,,,,,19,18,K,W,2023-01-05_13h23.37.602,Flanker,2022.2.4,None,
Przez najbliższe 5 minut proszę kolorować otrzymaną pustą kartkę. Naciśnij spację aby zacząć odmierzać czas,,>>>>>,0,0,0,1,,,,,0,40,40,7,,,,,,,,,,,,,,,,,,,,,489.5587868060680,489.5587868060680,right,0,0.4761354409856720,,,,,,19,18,K,W,2023-01-05_13h23.37.602,Flanker,2022.2.4,None,
Przez najbliższe 5 minut proszę kolorować otrzymaną pustą kartkę. Naciśnij spację aby zacząć odmierzać czas,,>><>>,0,0,0,1,,,,,0,41,41,30,,,,,,,,,,,,,,,,,,,,,491.05490609502900,491.05490609502900,left,0,0.48598973895423100,,,,,,19,18,K,W,2023-01-05_13h23.37.602,Flanker,2022.2.4,None,
Przez najbliższe 5 minut proszę kolorować otrzymaną pustą kartkę. Naciśnij spację aby zacząć odmierzać czas,,--<--,0,0,0,1,,,,,0,42,42,41,,,,,,,,,,,,,,,,,,,,,492.5551942050220,492.5551942050220,left,0,0.5276191129814830,,,,,,19,18,K,W,2023-01-05_13h23.37.602,Flanker,2022.2.4,None,
Przez najbliższe 5 minut proszę kolorować otrzymaną pustą kartkę. Naciśnij spację aby zacząć odmierzać czas,,>><>>,0,0,0,1,,,,,0,43,43,31,,,,,,,,,,,,,,,,,,,,,494.0980015359820,494.0980015359820,left,0,0.5957259539281950,,,,,,19,18,K,W,2023-01-05_13h23.37.602,Flanker,2022.2.4,None,
Przez najbliższe 5 minut proszę kolorować otrzymaną pustą kartkę. Naciśnij spację aby zacząć odmierzać czas,,--<--,0,0,0,1,,,,,0,44,44,44,,,,,,,,,,,,,,,,,,,,,495.7051208030900,495.7051208030900,left,0,0.37273899000138000,,,,,,19,18,K,W,2023-01-05_13h23.37.602,Flanker,2022.2.4,None,
Przez najbliższe 5 minut proszę kolorować otrzymaną pustą kartkę. Naciśnij spację aby zacząć odmierzać czas,,<<<<<,0,0,0,1,,,,,0,45,45,14,,,,,,,,,,,,,,,,,,,,,497.08803099405500,497.08803099405500,left,0,0.5717081989860160,,,,,,19,18,K,W,2023-01-05_13h23.37.602,Flanker,2022.2.4,None,
Przez najbliższe 5 minut proszę kolorować otrzymaną pustą kartkę. Naciśnij spację aby zacząć odmierzać czas,,--<--,0,0,0,1,,,,,0,46,46,45,,,,,,,,,,,,,,,,,,,,,498.68775818205900,498.68775818205900,left,0,0.5379195869900290,,,,,,19,18,K,W,2023-01-05_13h23.37.602,Flanker,2022.2.4,None,
Przez najbliższe 5 minut proszę kolorować otrzymaną pustą kartkę. Naciśnij spację aby zacząć odmierzać czas,,>>>>>,0,0,0,1,,,,,0,47,47,4,,,,,,,,,,,,,,,,,,,,,500.23902926407800,500.23902926407800,right,0,0.44871654093731200,,,,,,19,18,K,W,2023-01-05_13h23.37.602,Flanker,2022.2.4,None,
Przez najbliższe 5 minut proszę kolorować otrzymaną pustą kartkę. Naciśnij spację aby zacząć odmierzać czas,,>><>>,0,0,0,1,,,,,0,48,48,38,,,,,,,,,,,,,,,,,,,,,501.7043186610100,501.7043186610100,left,0,0.5053837889572610,,,,,,19,18,K,W,2023-01-05_13h23.37.602,Flanker,2022.2.4,None,
Przez najbliższe 5 minut proszę kolorować otrzymaną pustą kartkę. Naciśnij spację aby zacząć odmierzać czas,,<<<<<,0,0,0,1,,,,,0,49,49,17,,,,,,,,,,,,,,,,,,,,,503.22723758302200,503.22723758302200,left,0,0.3994079139083620,,,,,,19,18,K,W,2023-01-05_13h23.37.602,Flanker,2022.2.4,None,
Przez najbliższe 5 minut proszę kolorować otrzymaną pustą kartkę. Naciśnij spację aby zacząć odmierzać czas,,<<><<,0,0,0,1,,,,,0,50,50,28,,,,,,,,,,,,,,,,,,,,,504.64606893702900,504.64606893702900,right,0,0.507534665055573,,,,,,19,18,K,W,2023-01-05_13h23.37.602,Flanker,2022.2.4,None,
Przez najbliższe 5 minut proszę kolorować otrzymaną pustą kartkę. Naciśnij spację aby zacząć odmierzać czas,,>>>>>,0,0,0,1,,,,,0,51,51,0,,,,,,,,,,,,,,,,,,,,,506.1645158700410,506.1645158700410,right,0,0.49011269595939700,,,,,,19,18,K,W,2023-01-05_13h23.37.602,Flanker,2022.2.4,None,
Przez najbliższe 5 minut proszę kolorować otrzymaną pustą kartkę. Naciśnij spację aby zacząć odmierzać czas,,<<<<<,0,0,0,1,,,,,0,52,52,11,,,,,,,,,,,,,,,,,,,,,507.67094387009300,507.67094387009300,left,0,0.522557141026482,,,,,,19,18,K,W,2023-01-05_13h23.37.602,Flanker,2022.2.4,None,
Przez najbliższe 5 minut proszę kolorować otrzymaną pustą kartkę. Naciśnij spację aby zacząć odmierzać czas,,--<--,0,0,0,1,,,,,0,53,53,40,,,,,,,,,,,,,,,,,,,,,509.2138184480140,509.2138184480140,left,0,0.5567938690073790,,,,,,19,18,K,W,2023-01-05_13h23.37.602,Flanker,2022.2.4,None,
Przez najbliższe 5 minut proszę kolorować otrzymaną pustą kartkę. Naciśnij spację aby zacząć odmierzać czas,,--<--,0,0,0,1,,,,,0,54,54,47,,,,,,,,,,,,,,,,,,,,,510.78680885303800,510.78680885303800,left,0,0.33140761696267900,,,,,,19,18,K,W,2023-01-05_13h23.37.602,Flanker,2022.2.4,None,
Przez najbliższe 5 minut proszę kolorować otrzymaną pustą kartkę. Naciśnij spację aby zacząć odmierzać czas,,-->--,0,0,0,1,,,,,0,55,55,55,,,,,,,,,,,,,,,,,,,,,512.1436520770660,512.1436520770660,right,0,0.4586763270199300,,,,,,19,18,K,W,2023-01-05_13h23.37.602,Flanker,2022.2.4,None,
Przez najbliższe 5 minut proszę kolorować otrzymaną pustą kartkę. Naciśnij spację aby zacząć odmierzać czas,,>><>>,0,0,0,1,,,,,0,56,56,32,,,,,,,,,,,,,,,,,,,,,513.6211259100820,513.6211259100820,left,0,0.43718096998054500,,,,,,19,18,K,W,2023-01-05_13h23.37.602,Flanker,2022.2.4,None,
Przez najbliższe 5 minut proszę kolorować otrzymaną pustą kartkę. Naciśnij spację aby zacząć odmierzać czas,,<<><<,0,0,0,1,,,,,0,57,57,22,,,,,,,,,,,,,,,,,,,,,515.0744454560340,515.0744454560340,right,0,0.6448821059893820,,,,,,19,18,K,W,2023-01-05_13h23.37.602,Flanker,2022.2.4,None,
Przez najbliższe 5 minut proszę kolorować otrzymaną pustą kartkę. Naciśnij spację aby zacząć odmierzać czas,,-->--,0,0,0,1,,,,,0,58,58,53,,,,,,,,,,,,,,,,,,,,,516.7340343020620,516.7340343020620,left,0,0.3103240589844060,,,,,,19,18,K,W,2023-01-05_13h23.37.602,Flanker,2022.2.4,None,
Przez najbliższe 5 minut proszę kolorować otrzymaną pustą kartkę. Naciśnij spację aby zacząć odmierzać czas,,-->--,0,0,0,1,,,,,0,59,59,51,,,,,,,,,,,,,,,,,,,,,518.0554607270750,518.0554607270750,right,0,0.2967838440090420,,,,,,19,18,K,W,2023-01-05_13h23.37.602,Flanker,2022.2.4,None,
Przez najbliższe 5 minut proszę kolorować otrzymaną pustą kartkę. Naciśnij spację aby zacząć odmierzać czas,,,0,0,0,1,,,,,,,,,,,,,,,,,,,,,,,,,,,,,,,,,,,,,,,19,18,K,W,2023-01-05_13h23.37.602,Flanker,2022.2.4,None,
Przez najbliższe 5 minut proszę kolorować otrzymaną kolorwankę z mandalą. Naciśnij spację aby zacząć odmierzać czas,>><>>,,0,1,1,0,0,0,0,3,,,,,,,,,518.4013956530250,519.3727020800580,space,10.089557972038200,529.4782713530590,829.5062089579880,831.4679873660210,space,4.286523797083650,835.7725103209960,844.7619093470280,844.7619093470280,left,0,1.2803841079585300,,,,,,,,,,,,19,18,K,W,2023-01-05_13h23.37.602,Flanker,2022.2.4,None,
Przez najbliższe 5 minut proszę kolorować otrzymaną kolorwankę z mandalą. Naciśnij spację aby zacząć odmierzać czas,--<--,,0,1,1,0,0,1,1,4,,,,,,,,,,,,,,,,,,,847.0504668100040,847.0504668100040,left,0,0.6356254600686950,,,,,,,,,,,,19,18,K,W,2023-01-05_13h23.37.602,Flanker,2022.2.4,None,
Przez najbliższe 5 minut proszę kolorować otrzymaną kolorwankę z mandalą. Naciśnij spację aby zacząć odmierzać czas,-->--,,0,1,1,0,0,2,2,5,,,,,,,,,,,,,,,,,,,848.6996672870590,848.6996672870590,right,0,0.3105235870461910,,,,,,,,,,,,19,18,K,W,2023-01-05_13h23.37.602,Flanker,2022.2.4,None,
Przez najbliższe 5 minut proszę kolorować otrzymaną kolorwankę z mandalą. Naciśnij spację aby zacząć odmierzać czas,<<><<,,0,1,1,0,0,3,3,2,,,,,,,,,,,,,,,,,,,850.0250163930470,850.0250163930470,right,0,0.5220579450251540,,,,,,,,,,,,19,18,K,W,2023-01-05_13h23.37.602,Flanker,2022.2.4,None,
Przez najbliższe 5 minut proszę kolorować otrzymaną kolorwankę z mandalą. Naciśnij spację aby zacząć odmierzać czas,>>>>>,,0,1,1,0,0,4,4,1,,,,,,,,,,,,,,,,,,,851.5582509540250,851.5582509540250,right,0,0.4518840089440350,,,,,,,,,,,,19,18,K,W,2023-01-05_13h23.37.602,Flanker,2022.2.4,None,
Przez najbliższe 5 minut proszę kolorować otrzymaną kolorwankę z mandalą. Naciśnij spację aby zacząć odmierzać czas,<<<<<,,0,1,1,0,0,5,5,0,,,,,,,,,,,,,,,,,,,853.0259417190680,853.0259417190680,left,0,0.36427279689814900,,,,,,,,,,,,19,18,K,W,2023-01-05_13h23.37.602,Flanker,2022.2.4,None,
Przez najbliższe 5 minut proszę kolorować otrzymaną kolorwankę z mandalą. Naciśnij spację aby zacząć odmierzać czas,,>>>>> ,0,1,1,0,,,,,0,0,0,5,,,,,,,,,,,,,,,,,,,,854.4030203870500,862.4102635390590,862.4102635390590,right,0,0.5318769420264290,,,,,,19,18,K,W,2023-01-05_13h23.37.602,Flanker,2022.2.4,None,
Przez najbliższe 5 minut proszę kolorować otrzymaną kolorwankę z mandalą. Naciśnij spację aby zacząć odmierzać czas,,-->--,0,1,1,0,,,,,0,1,1,58,,,,,,,,,,,,,,,,,,,,,863.9513239430960,863.9513239430960,right,0,0.3627879039850090,,,,,,19,18,K,W,2023-01-05_13h23.37.602,Flanker,2022.2.4,None,
Przez najbliższe 5 minut proszę kolorować otrzymaną kolorwankę z mandalą. Naciśnij spację aby zacząć odmierzać czas,,<<><<,0,1,1,0,,,,,0,2,2,22,,,,,,,,,,,,,,,,,,,,,865.3422655040630,865.3422655040630,right,0,0.6058594579808410,,,,,,19,18,K,W,2023-01-05_13h23.37.602,Flanker,2022.2.4,None,
Przez najbliższe 5 minut proszę kolorować otrzymaną kolorwankę z mandalą. Naciśnij spację aby zacząć odmierzać czas,,>>>>>,0,1,1,0,,,,,0,3,3,7,,,,,,,,,,,,,,,,,,,,,866.962700476055,866.962700476055,right,0,0.565285408985801,,,,,,19,18,K,W,2023-01-05_13h23.37.602,Flanker,2022.2.4,None,
Przez najbliższe 5 minut proszę kolorować otrzymaną kolorwankę z mandalą. Naciśnij spację aby zacząć odmierzać czas,,--<--,0,1,1,0,,,,,0,4,4,48,,,,,,,,,,,,,,,,,,,,,868.5512369200590,868.5512369200590,left,0,0.4971558899851520,,,,,,19,18,K,W,2023-01-05_13h23.37.602,Flanker,2022.2.4,None,
Przez najbliższe 5 minut proszę kolorować otrzymaną kolorwankę z mandalą. Naciśnij spację aby zacząć odmierzać czas,,<<><<,0,1,1,0,,,,,0,5,5,21,,,,,,,,,,,,,,,,,,,,,870.0576596310130,870.0576596310130,right,0,0.6544861521106210,,,,,,19,18,K,W,2023-01-05_13h23.37.602,Flanker,2022.2.4,None,
Przez najbliższe 5 minut proszę kolorować otrzymaną kolorwankę z mandalą. Naciśnij spację aby zacząć odmierzać czas,,>><>>,0,1,1,0,,,,,0,6,6,37,,,,,,,,,,,,,,,,,,,,,871.7245623070050,871.7245623070050,left,0,0.36837155802641100,,,,,,19,18,K,W,2023-01-05_13h23.37.602,Flanker,2022.2.4,None,
Przez najbliższe 5 minut proszę kolorować otrzymaną kolorwankę z mandalą. Naciśnij spację aby zacząć odmierzać czas,,<<<<<,0,1,1,0,,,,,0,7,7,15,,,,,,,,,,,,,,,,,,,,,873.1031123360150,873.1031123360150,left,0,0.3788317389553410,,,,,,19,18,K,W,2023-01-05_13h23.37.602,Flanker,2022.2.4,None,
Przez najbliższe 5 minut proszę kolorować otrzymaną kolorwankę z mandalą. Naciśnij spację aby zacząć odmierzać czas,,>><>>,0,1,1,0,,,,,0,8,8,39,,,,,,,,,,,,,,,,,,,,,874.4967749990760,874.4967749990760,left,0,0.49522896902635700,,,,,,19,18,K,W,2023-01-05_13h23.37.602,Flanker,2022.2.4,None,
Przez najbliższe 5 minut proszę kolorować otrzymaną kolorwankę z mandalą. Naciśnij spację aby zacząć odmierzać czas,,-->--,0,1,1,0,,,,,0,9,9,52,,,,,,,,,,,,,,,,,,,,,876.0049226920820,876.0049226920820,right,0,0.36906637996435200,,,,,,19,18,K,W,2023-01-05_13h23.37.602,Flanker,2022.2.4,None,
Przez najbliższe 5 minut proszę kolorować otrzymaną kolorwankę z mandalą. Naciśnij spację aby zacząć odmierzać czas,,<<><<,0,1,1,0,,,,,0,10,10,28,,,,,,,,,,,,,,,,,,,,,877.3905689520760,877.3905689520760,right,0,0.4722891199635340,,,,,,19,18,K,W,2023-01-05_13h23.37.602,Flanker,2022.2.4,None,
Przez najbliższe 5 minut proszę kolorować otrzymaną kolorwankę z mandalą. Naciśnij spację aby zacząć odmierzać czas,,<<<<<,0,1,1,0,,,,,0,11,11,17,,,,,,,,,,,,,,,,,,,,,878.9038130510600,878.9038130510600,left,0,0.40607733407523500,,,,,,19,18,K,W,2023-01-05_13h23.37.602,Flanker,2022.2.4,None,
Przez najbliższe 5 minut proszę kolorować otrzymaną kolorwankę z mandalą. Naciśnij spację aby zacząć odmierzać czas,,>>>>>,0,1,1,0,,,,,0,12,12,0,,,,,,,,,,,,,,,,,,,,,880.3165803850860,880.3165803850860,right,0,0.3432931340066720,,,,,,19,18,K,W,2023-01-05_13h23.37.602,Flanker,2022.2.4,None,
Przez najbliższe 5 minut proszę kolorować otrzymaną kolorwankę z mandalą. Naciśnij spację aby zacząć odmierzać czas,,-->--,0,1,1,0,,,,,0,13,13,55,,,,,,,,,,,,,,,,,,,,,881.6781628450840,881.6781628450840,right,0,0.39367376000154800,,,,,,19,18,K,W,2023-01-05_13h23.37.602,Flanker,2022.2.4,None,
Przez najbliższe 5 minut proszę kolorować otrzymaną kolorwankę z mandalą. Naciśnij spację aby zacząć odmierzać czas,,<<><<,0,1,1,0,,,,,0,14,14,25,,,,,,,,,,,,,,,,,,,,,883.0890208520000,883.0890208520000,right,0,0.5788170829182490,,,,,,19,18,K,W,2023-01-05_13h23.37.602,Flanker,2022.2.4,None,
Przez najbliższe 5 minut proszę kolorować otrzymaną kolorwankę z mandalą. Naciśnij spację aby zacząć odmierzać czas,,--<--,0,1,1,0,,,,,0,15,15,42,,,,,,,,,,,,,,,,,,,,,884.6889855060730,884.6889855060730,left,0,0.4238517419435080,,,,,,19,18,K,W,2023-01-05_13h23.37.602,Flanker,2022.2.4,None,
Przez najbliższe 5 minut proszę kolorować otrzymaną kolorwankę z mandalą. Naciśnij spację aby zacząć odmierzać czas,,>>>>>,0,1,1,0,,,,,0,16,16,1,,,,,,,,,,,,,,,,,,,,,886.1300063000530,886.1300063000530,right,0,0.38973315490875400,,,,,,19,18,K,W,2023-01-05_13h23.37.602,Flanker,2022.2.4,None,
Przez najbliższe 5 minut proszę kolorować otrzymaną kolorwankę z mandalą. Naciśnij spację aby zacząć odmierzać czas,,>><>>,0,1,1,0,,,,,0,17,17,31,,,,,,,,,,,,,,,,,,,,,887.5347599519880,887.5347599519880,left,0,0.48392869206145400,,,,,,19,18,K,W,2023-01-05_13h23.37.602,Flanker,2022.2.4,None,
Przez najbliższe 5 minut proszę kolorować otrzymaną kolorwankę z mandalą. Naciśnij spację aby zacząć odmierzać czas,,<<><<,0,1,1,0,,,,,0,18,18,23,,,,,,,,,,,,,,,,,,,,,889.0329728070650,889.0329728070650,right,0,0.5236328119644900,,,,,,19,18,K,W,2023-01-05_13h23.37.602,Flanker,2022.2.4,None,
Przez najbliższe 5 minut proszę kolorować otrzymaną kolorwankę z mandalą. Naciśnij spację aby zacząć odmierzać czas,,-->--,0,1,1,0,,,,,0,19,19,50,,,,,,,,,,,,,,,,,,,,,890.5777979890120,890.5777979890120,right,0,0.46885861502960300,,,,,,19,18,K,W,2023-01-05_13h23.37.602,Flanker,2022.2.4,None,
Przez najbliższe 5 minut proszę kolorować otrzymaną kolorwankę z mandalą. Naciśnij spację aby zacząć odmierzać czas,,-->--,0,1,1,0,,,,,0,20,20,54,,,,,,,,,,,,,,,,,,,,,892.0721350780220,892.0721350780220,right,0,0.43455340596847200,,,,,,19,18,K,W,2023-01-05_13h23.37.602,Flanker,2022.2.4,None,
Przez najbliższe 5 minut proszę kolorować otrzymaną kolorwankę z mandalą. Naciśnij spację aby zacząć odmierzać czas,,>><>>,0,1,1,0,,,,,0,21,21,30,,,,,,,,,,,,,,,,,,,,,893.5264406120410,893.5264406120410,left,0,0.6271679130150010,,,,,,19,18,K,W,2023-01-05_13h23.37.602,Flanker,2022.2.4,None,
Przez najbliższe 5 minut proszę kolorować otrzymaną kolorwankę z mandalą. Naciśnij spację aby zacząć odmierzać czas,,--<--,0,1,1,0,,,,,0,22,22,47,,,,,,,,,,,,,,,,,,,,,895.161509832018,895.161509832018,left,0,0.6539702480658890,,,,,,19,18,K,W,2023-01-05_13h23.37.602,Flanker,2022.2.4,None,
Przez najbliższe 5 minut proszę kolorować otrzymaną kolorwankę z mandalą. Naciśnij spację aby zacząć odmierzać czas,,>><>>,0,1,1,0,,,,,0,23,23,38,,,,,,,,,,,,,,,,,,,,,896.841536876047,896.841536876047,left,0,0.5350283100269740,,,,,,19,18,K,W,2023-01-05_13h23.37.602,Flanker,2022.2.4,None,
Przez najbliższe 5 minut proszę kolorować otrzymaną kolorwankę z mandalą. Naciśnij spację aby zacząć odmierzać czas,,--<--,0,1,1,0,,,,,0,24,24,40,,,,,,,,,,,,,,,,,,,,,898.3838794780900,898.3838794780900,left,0,0.4706004150211810,,,,,,19,18,K,W,2023-01-05_13h23.37.602,Flanker,2022.2.4,None,
Przez najbliższe 5 minut proszę kolorować otrzymaną kolorwankę z mandalą. Naciśnij spację aby zacząć odmierzać czas,,<<<<<,0,1,1,0,,,,,0,25,25,11,,,,,,,,,,,,,,,,,,,,,899.8673607740780,899.8673607740780,left,0,0.46222762495745000,,,,,,19,18,K,W,2023-01-05_13h23.37.602,Flanker,2022.2.4,None,
Przez najbliższe 5 minut proszę kolorować otrzymaną kolorwankę z mandalą. Naciśnij spację aby zacząć odmierzać czas,,<<<<<,0,1,1,0,,,,,0,26,26,16,,,,,,,,,,,,,,,,,,,,,901.349152347073,901.349152347073,left,0,0.6352500929497180,,,,,,19,18,K,W,2023-01-05_13h23.37.602,Flanker,2022.2.4,None,
Przez najbliższe 5 minut proszę kolorować otrzymaną kolorwankę z mandalą. Naciśnij spację aby zacząć odmierzać czas,,<<><<,0,1,1,0,,,,,0,27,27,20,,,,,,,,,,,,,,,,,,,,,902.9924368340290,902.9924368340290,right,0,0.48593470302876100,,,,,,19,18,K,W,2023-01-05_13h23.37.602,Flanker,2022.2.4,None,
Przez najbliższe 5 minut proszę kolorować otrzymaną kolorwankę z mandalą. Naciśnij spację aby zacząć odmierzać czas,,--<--,0,1,1,0,,,,,0,28,28,44,,,,,,,,,,,,,,,,,,,,,904.4799726300410,904.4799726300410,left,0,0.5163626029388980,,,,,,19,18,K,W,2023-01-05_13h23.37.602,Flanker,2022.2.4,None,
Przez najbliższe 5 minut proszę kolorować otrzymaną kolorwankę z mandalą. Naciśnij spację aby zacząć odmierzać czas,,-->--,0,1,1,0,,,,,0,29,29,59,,,,,,,,,,,,,,,,,,,,,906.0253058470550,906.0253058470550,right,0,0.3529645319795240,,,,,,19,18,K,W,2023-01-05_13h23.37.602,Flanker,2022.2.4,None,
Przez najbliższe 5 minut proszę kolorować otrzymaną kolorwankę z mandalą. Naciśnij spację aby zacząć odmierzać czas,,--<--,0,1,1,0,,,,,0,30,30,43,,,,,,,,,,,,,,,,,,,,,907.3928986440880,907.3928986440880,left,0,0.4443305410677570,,,,,,19,18,K,W,2023-01-05_13h23.37.602,Flanker,2022.2.4,None,
Przez najbliższe 5 minut proszę kolorować otrzymaną kolorwankę z mandalą. Naciśnij spację aby zacząć odmierzać czas,,>><>>,0,1,1,0,,,,,0,31,31,35,,,,,,,,,,,,,,,,,,,,,908.8507685840600,908.8507685840600,left,0,0.5045493349898610,,,,,,19,18,K,W,2023-01-05_13h23.37.602,Flanker,2022.2.4,None,
Przez najbliższe 5 minut proszę kolorować otrzymaną kolorwankę z mandalą. Naciśnij spację aby zacząć odmierzać czas,,<<<<<,0,1,1,0,,,,,0,32,32,13,,,,,,,,,,,,,,,,,,,,,910.376114577055,910.376114577055,left,0,0.3432028630049900,,,,,,19,18,K,W,2023-01-05_13h23.37.602,Flanker,2022.2.4,None,
Przez najbliższe 5 minut proszę kolorować otrzymaną kolorwankę z mandalą. Naciśnij spację aby zacząć odmierzać czas,,--<--,0,1,1,0,,,,,0,33,33,49,,,,,,,,,,,,,,,,,,,,,911.7387678880480,911.7387678880480,left,0,0.37036196410190300,,,,,,19,18,K,W,2023-01-05_13h23.37.602,Flanker,2022.2.4,None,
Przez najbliższe 5 minut proszę kolorować otrzymaną kolorwankę z mandalą. Naciśnij spację aby zacząć odmierzać czas,,-->--,0,1,1,0,,,,,0,34,34,53,,,,,,,,,,,,,,,,,,,,,913.1385245590940,913.1385245590940,right,0,0.46652148198336400,,,,,,19,18,K,W,2023-01-05_13h23.37.602,Flanker,2022.2.4,None,
Przez najbliższe 5 minut proszę kolorować otrzymaną kolorwankę z mandalą. Naciśnij spację aby zacząć odmierzać czas,,>>>>>,0,1,1,0,,,,,0,35,35,9,,,,,,,,,,,,,,,,,,,,,914.6161429100900,914.6161429100900,right,0,0.42293152201455100,,,,,,19,18,K,W,2023-01-05_13h23.37.602,Flanker,2022.2.4,None,
Przez najbliższe 5 minut proszę kolorować otrzymaną kolorwankę z mandalą. Naciśnij spację aby zacząć odmierzać czas,,-->--,0,1,1,0,,,,,0,36,36,56,,,,,,,,,,,,,,,,,,,,,916.0569119020370,916.0569119020370,right,0,0.3873237809166310,,,,,,19,18,K,W,2023-01-05_13h23.37.602,Flanker,2022.2.4,None,
Przez najbliższe 5 minut proszę kolorować otrzymaną kolorwankę z mandalą. Naciśnij spację aby zacząć odmierzać czas,,>>>>>,0,1,1,0,,,,,0,37,37,8,,,,,,,,,,,,,,,,,,,,,917.4565102560450,917.4565102560450,right,0,0.4324341119499880,,,,,,19,18,K,W,2023-01-05_13h23.37.602,Flanker,2022.2.4,None,
Przez najbliższe 5 minut proszę kolorować otrzymaną kolorwankę z mandalą. Naciśnij spację aby zacząć odmierzać czas,,>><>>,0,1,1,0,,,,,0,38,38,34,,,,,,,,,,,,,,,,,,,,,918.9086605110210,918.9086605110210,left,0,0.6694844319717960,,,,,,19,18,K,W,2023-01-05_13h23.37.602,Flanker,2022.2.4,None,
Przez najbliższe 5 minut proszę kolorować otrzymaną kolorwankę z mandalą. Naciśnij spację aby zacząć odmierzać czas,,>><>>,0,1,1,0,,,,,0,39,39,32,,,,,,,,,,,,,,,,,,,,,920.5950342559950,920.5950342559950,left,0,0.47807433106936500,,,,,,19,18,K,W,2023-01-05_13h23.37.602,Flanker,2022.2.4,None,
Przez najbliższe 5 minut proszę kolorować otrzymaną kolorwankę z mandalą. Naciśnij spację aby zacząć odmierzać czas,,--<--,0,1,1,0,,,,,0,40,40,41,,,,,,,,,,,,,,,,,,,,,922.0899556380460,922.0899556380460,left,0,0.3672473789192740,,,,,,19,18,K,W,2023-01-05_13h23.37.602,Flanker,2022.2.4,None,
Przez najbliższe 5 minut proszę kolorować otrzymaną kolorwankę z mandalą. Naciśnij spację aby zacząć odmierzać czas,,<<<<<,0,1,1,0,,,,,0,41,41,18,,,,,,,,,,,,,,,,,,,,,923.4756823700150,923.4756823700150,left,0,0.44631026801653200,,,,,,19,18,K,W,2023-01-05_13h23.37.602,Flanker,2022.2.4,None,
Przez najbliższe 5 minut proszę kolorować otrzymaną kolorwankę z mandalą. Naciśnij spację aby zacząć odmierzać czas,,<<<<<,0,1,1,0,,,,,0,42,42,14,,,,,,,,,,,,,,,,,,,,,924.9394132910530,924.9394132910530,left,0,0.33939064596779600,,,,,,19,18,K,W,2023-01-05_13h23.37.602,Flanker,2022.2.4,None,
Przez najbliższe 5 minut proszę kolorować otrzymaną kolorwankę z mandalą. Naciśnij spację aby zacząć odmierzać czas,,>><>>,0,1,1,0,,,,,0,43,43,33,,,,,,,,,,,,,,,,,,,,,926.2935346619930,926.2935346619930,left,0,0.44834858598187600,,,,,,19,18,K,W,2023-01-05_13h23.37.602,Flanker,2022.2.4,None,
Przez najbliższe 5 minut proszę kolorować otrzymaną kolorwankę z mandalą. Naciśnij spację aby zacząć odmierzać czas,,<<><<,0,1,1,0,,,,,0,44,44,26,,,,,,,,,,,,,,,,,,,,,927.7573083230530,927.7573083230530,right,0,0.4735814230516550,,,,,,19,18,K,W,2023-01-05_13h23.37.602,Flanker,2022.2.4,None,
Przez najbliższe 5 minut proszę kolorować otrzymaną kolorwankę z mandalą. Naciśnij spację aby zacząć odmierzać czas,,--<--,0,1,1,0,,,,,0,45,45,45,,,,,,,,,,,,,,,,,,,,,929.2432653440630,929.2432653440630,left,0,0.4304264329839500,,,,,,19,18,K,W,2023-01-05_13h23.37.602,Flanker,2022.2.4,None,
Przez najbliższe 5 minut proszę kolorować otrzymaną kolorwankę z mandalą. Naciśnij spację aby zacząć odmierzać czas,,>><>>,0,1,1,0,,,,,0,46,46,36,,,,,,,,,,,,,,,,,,,,,930.6896110960520,930.6896110960520,left,0,0.45427683100570000,,,,,,19,18,K,W,2023-01-05_13h23.37.602,Flanker,2022.2.4,None,
Przez najbliższe 5 minut proszę kolorować otrzymaną kolorwankę z mandalą. Naciśnij spację aby zacząć odmierzać czas,,<<><<,0,1,1,0,,,,,0,47,47,27,,,,,,,,,,,,,,,,,,,,,932.1634846730160,932.1634846730160,right,0,0.43549135606735900,,,,,,19,18,K,W,2023-01-05_13h23.37.602,Flanker,2022.2.4,None,
Przez najbliższe 5 minut proszę kolorować otrzymaną kolorwankę z mandalą. Naciśnij spację aby zacząć odmierzać czas,,<<<<<,0,1,1,0,,,,,0,48,48,19,,,,,,,,,,,,,,,,,,,,,933.6216815880030,933.6216815880030,left,0,0.4051139790099110,,,,,,19,18,K,W,2023-01-05_13h23.37.602,Flanker,2022.2.4,None,
Przez najbliższe 5 minut proszę kolorować otrzymaną kolorwankę z mandalą. Naciśnij spację aby zacząć odmierzać czas,,<<><<,0,1,1,0,,,,,0,49,49,24,,,,,,,,,,,,,,,,,,,,,935.0347815999990,935.0347815999990,right,0,0.6159312810050320,,,,,,19,18,K,W,2023-01-05_13h23.37.602,Flanker,2022.2.4,None,
Przez najbliższe 5 minut proszę kolorować otrzymaną kolorwankę z mandalą. Naciśnij spację aby zacząć odmierzać czas,,>>>>>,0,1,1,0,,,,,0,50,50,2,,,,,,,,,,,,,,,,,,,,,936.6554734010720,936.6554734010720,right,0,0.441201806999743,,,,,,19,18,K,W,2023-01-05_13h23.37.602,Flanker,2022.2.4,None,
Przez najbliższe 5 minut proszę kolorować otrzymaną kolorwankę z mandalą. Naciśnij spację aby zacząć odmierzać czas,,-->--,0,1,1,0,,,,,0,51,51,51,,,,,,,,,,,,,,,,,,,,,938.1234228920660,938.1234228920660,right,0,0.40928710205480500,,,,,,19,18,K,W,2023-01-05_13h23.37.602,Flanker,2022.2.4,None,
Przez najbliższe 5 minut proszę kolorować otrzymaną kolorwankę z mandalą. Naciśnij spację aby zacząć odmierzać czas,,-->--,0,1,1,0,,,,,0,52,52,57,,,,,,,,,,,,,,,,,,,,,939.541575064999,939.541575064999,right,0,0.3311790789011870,,,,,,19,18,K,W,2023-01-05_13h23.37.602,Flanker,2022.2.4,None,
Przez najbliższe 5 minut proszę kolorować otrzymaną kolorwankę z mandalą. Naciśnij spację aby zacząć odmierzać czas,,<<<<<,0,1,1,0,,,,,0,53,53,10,,,,,,,,,,,,,,,,,,,,,940.8829696360040,940.8829696360040,right,0,0.2766408108873290,,,,,,19,18,K,W,2023-01-05_13h23.37.602,Flanker,2022.2.4,None,
Przez najbliższe 5 minut proszę kolorować otrzymaną kolorwankę z mandalą. Naciśnij spację aby zacząć odmierzać czas,,<<><<,0,1,1,0,,,,,0,54,54,29,,,,,,,,,,,,,,,,,,,,,942.1755966540660,942.1755966540660,right,0,0.5049225960392510,,,,,,19,18,K,W,2023-01-05_13h23.37.602,Flanker,2022.2.4,None,
Przez najbliższe 5 minut proszę kolorować otrzymaną kolorwankę z mandalą. Naciśnij spację aby zacząć odmierzać czas,,--<--,0,1,1,0,,,,,0,55,55,46,,,,,,,,,,,,,,,,,,,,,943.6933919100560,943.6933919100560,left,0,0.4781211399240420,,,,,,19,18,K,W,2023-01-05_13h23.37.602,Flanker,2022.2.4,None,
Przez najbliższe 5 minut proszę kolorować otrzymaną kolorwankę z mandalą. Naciśnij spację aby zacząć odmierzać czas,,<<<<<,0,1,1,0,,,,,0,56,56,12,,,,,,,,,,,,,,,,,,,,,945.1823789950000,945.1823789950000,left,0,0.4002825189381840,,,,,,19,18,K,W,2023-01-05_13h23.37.602,Flanker,2022.2.4,None,
Przez najbliższe 5 minut proszę kolorować otrzymaną kolorwankę z mandalą. Naciśnij spację aby zacząć odmierzać czas,,>>>>>,0,1,1,0,,,,,0,57,57,3,,,,,,,,,,,,,,,,,,,,,946.6046867930560,946.6046867930560,right,0,0.4038278239313510,,,,,,19,18,K,W,2023-01-05_13h23.37.602,Flanker,2022.2.4,None,
Przez najbliższe 5 minut proszę kolorować otrzymaną kolorwankę z mandalą. Naciśnij spację aby zacząć odmierzać czas,,>>>>>,0,1,1,0,,,,,0,58,58,4,,,,,,,,,,,,,,,,,,,,,948.0279618840430,948.0279618840430,right,0,0.40247454203199600,,,,,,19,18,K,W,2023-01-05_13h23.37.602,Flanker,2022.2.4,None,
Przez najbliższe 5 minut proszę kolorować otrzymaną kolorwankę z mandalą. Naciśnij spację aby zacząć odmierzać czas,,>>>>>,0,1,1,0,,,,,0,59,59,6,,,,,,,,,,,,,,,,,,,,,949.4549503140150,949.4549503140150,right,0,0.3734608138911430,,,,,,19,18,K,W,2023-01-05_13h23.37.602,Flanker,2022.2.4,None,
Przez najbliższe 5 minut proszę kolorować otrzymaną kolorwankę z mandalą. Naciśnij spację aby zacząć odmierzać czas,,,0,1,1,0,,,,,,,,,,,,,,,,,,,,,,,,,,,,,,,,,,,,,,,19,18,K,W,2023-01-05_13h23.37.602,Flanker,2022.2.4,None,
,,,,,,,,,,,,,,,,,,,,,,,,,,,,,,,,,,,,,,,,,950.8475260470300,950.8475260470300,space,2.0768183540785700,19,18,K,W,2023-01-05_13h23.37.602,Flanker,2022.2.4,None,