kolorowanka,Example,Stimuli,proby.thisRepN,proby.thisTrialN,proby.thisN,proby.thisIndex,zapoznanie.thisRepN,zapoznanie.thisTrialN,zapoznanie.thisN,zapoznanie.thisIndex,Warunki.thisRepN,Warunki.thisTrialN,Warunki.thisN,Warunki.thisIndex,Intro.started,Intro_resp.started,Intro_resp.keys,Intro_resp.rt,Kolorowanie1.started,starttt.started,starttt.keys,starttt.rt,koloruj.started,Instruction.started,key_resp.started,key_resp.keys,key_resp.rt,Wyjasnienie.started,text.started,odp_przyk.started,odp_przyk.keys,odp_przyk.corr,odp_przyk.rt,zapo.started,Zadanie.started,Odp.started,Odp.keys,Odp.corr,Odp.rt,zapo.stopped,thanks.started,KONIEC.started,KONIEC.keys,KONIEC.rt,participant,Wiek (w latach),Płeć (K/M),Entropia,date,expName,psychopyVersion,frameRate,
,,,,,,,,,,,,,,,40.155777529929800,42.13775216601790,space,13.32062090409450,,,,,,,,,,,,,,,,,,,,,,,,,,,1,21,M,N,2023-01-03_10h29.40.510,Flanker,2022.2.4,92.38168178441310,
Przez najbliższe 5 minut proszę kolorować otrzymaną kolorwankę z mandalą. Naciśnij spację aby zacząć odmierzać czas,<<<<<,,0,0,0,0,0,0,0,0,,,,,,,,,55.55176025198310,56.48572780902030,space,21.93601766601210,78.451366933994,380.9245092709320,382.9085652070350,space,37.84181558107960,420.76695448497800,429.7566061730030,429.7566061730030,left,0,0.801362443016842,,,,,,,,,,,,1,21,M,N,2023-01-03_10h29.40.510,Flanker,2022.2.4,92.38168178441310,
Przez najbliższe 5 minut proszę kolorować otrzymaną kolorwankę z mandalą. Naciśnij spację aby zacząć odmierzać czas,<<><<,,0,0,0,0,0,1,1,2,,,,,,,,,,,,,,,,,,,431.57389267697,431.57389267697,right,0,1.0677479730220500,,,,,,,,,,,,1,21,M,N,2023-01-03_10h29.40.510,Flanker,2022.2.4,92.38168178441310,
Przez najbliższe 5 minut proszę kolorować otrzymaną kolorwankę z mandalą. Naciśnij spację aby zacząć odmierzać czas,-->--,,0,0,0,0,0,2,2,5,,,,,,,,,,,,,,,,,,,433.66499012801800,433.66499012801800,right,0,0.6236799350008370,,,,,,,,,,,,1,21,M,N,2023-01-03_10h29.40.510,Flanker,2022.2.4,92.38168178441310,
Przez najbliższe 5 minut proszę kolorować otrzymaną kolorwankę z mandalą. Naciśnij spację aby zacząć odmierzać czas,>>>>>,,0,0,0,0,0,3,3,1,,,,,,,,,,,,,,,,,,,435.29912622994700,435.29912622994700,right,0,0.7463380229892210,,,,,,,,,,,,1,21,M,N,2023-01-03_10h29.40.510,Flanker,2022.2.4,92.38168178441310,
Przez najbliższe 5 minut proszę kolorować otrzymaną kolorwankę z mandalą. Naciśnij spację aby zacząć odmierzać czas,>><>>,,0,0,0,0,0,4,4,3,,,,,,,,,,,,,,,,,,,437.05644026899200,437.05644026899200,left,0,0.64416941604577,,,,,,,,,,,,1,21,M,N,2023-01-03_10h29.40.510,Flanker,2022.2.4,92.38168178441310,
Przez najbliższe 5 minut proszę kolorować otrzymaną kolorwankę z mandalą. Naciśnij spację aby zacząć odmierzać czas,--<--,,0,0,0,0,0,5,5,4,,,,,,,,,,,,,,,,,,,438.7054589089240,438.7054589089240,left,0,0.48402898700442200,,,,,,,,,,,,1,21,M,N,2023-01-03_10h29.40.510,Flanker,2022.2.4,92.38168178441310,
Przez najbliższe 5 minut proszę kolorować otrzymaną kolorwankę z mandalą. Naciśnij spację aby zacząć odmierzać czas,,>>>>> ,0,0,0,0,,,,,0,0,0,5,,,,,,,,,,,,,,,,,,,,440.2106612130300,448.20616449497200,448.20616449497200,right,0,0.4961017610039560,,,,,,1,21,M,N,2023-01-03_10h29.40.510,Flanker,2022.2.4,92.38168178441310,
Przez najbliższe 5 minut proszę kolorować otrzymaną kolorwankę z mandalą. Naciśnij spację aby zacząć odmierzać czas,,--<--,0,0,0,0,,,,,0,1,1,43,,,,,,,,,,,,,,,,,,,,,449.7209427829370,449.7209427829370,left,0,0.49595724092796400,,,,,,1,21,M,N,2023-01-03_10h29.40.510,Flanker,2022.2.4,92.38168178441310,
Przez najbliższe 5 minut proszę kolorować otrzymaną kolorwankę z mandalą. Naciśnij spację aby zacząć odmierzać czas,,>>>>>,0,0,0,0,,,,,0,2,2,3,,,,,,,,,,,,,,,,,,,,,451.23242719401600,451.23242719401600,right,0,0.4257194109959530,,,,,,1,21,M,N,2023-01-03_10h29.40.510,Flanker,2022.2.4,92.38168178441310,
Przez najbliższe 5 minut proszę kolorować otrzymaną kolorwankę z mandalą. Naciśnij spację aby zacząć odmierzać czas,,>><>>,0,0,0,0,,,,,0,3,3,36,,,,,,,,,,,,,,,,,,,,,452.66870301694100,452.66870301694100,left,0,0.6224433809984480,,,,,,1,21,M,N,2023-01-03_10h29.40.510,Flanker,2022.2.4,92.38168178441310,
Przez najbliższe 5 minut proszę kolorować otrzymaną kolorwankę z mandalą. Naciśnij spację aby zacząć odmierzać czas,,<<<<<,0,0,0,0,,,,,0,4,4,14,,,,,,,,,,,,,,,,,,,,,454.2989602040030,454.2989602040030,left,0,0.36514253995847000,,,,,,1,21,M,N,2023-01-03_10h29.40.510,Flanker,2022.2.4,92.38168178441310,
Przez najbliższe 5 minut proszę kolorować otrzymaną kolorwankę z mandalą. Naciśnij spację aby zacząć odmierzać czas,,<<><<,0,0,0,0,,,,,0,5,5,27,,,,,,,,,,,,,,,,,,,,,455.6761983699400,455.6761983699400,right,0,0.5429192730225620,,,,,,1,21,M,N,2023-01-03_10h29.40.510,Flanker,2022.2.4,92.38168178441310,
Przez najbliższe 5 minut proszę kolorować otrzymaną kolorwankę z mandalą. Naciśnij spację aby zacząć odmierzać czas,,<<<<<,0,0,0,0,,,,,0,6,6,17,,,,,,,,,,,,,,,,,,,,,457.22564099996800,457.22564099996800,left,0,0.3992555330041800,,,,,,1,21,M,N,2023-01-03_10h29.40.510,Flanker,2022.2.4,92.38168178441310,
Przez najbliższe 5 minut proszę kolorować otrzymaną kolorwankę z mandalą. Naciśnij spację aby zacząć odmierzać czas,,>><>>,0,0,0,0,,,,,0,7,7,38,,,,,,,,,,,,,,,,,,,,,458.6332434830260,458.6332434830260,left,0,0.6528064470039680,,,,,,1,21,M,N,2023-01-03_10h29.40.510,Flanker,2022.2.4,92.38168178441310,
Przez najbliższe 5 minut proszę kolorować otrzymaną kolorwankę z mandalą. Naciśnij spację aby zacząć odmierzać czas,,<<><<,0,0,0,0,,,,,0,8,8,23,,,,,,,,,,,,,,,,,,,,,460.29941209196100,460.29941209196100,right,0,0.5103516599629070,,,,,,1,21,M,N,2023-01-03_10h29.40.510,Flanker,2022.2.4,92.38168178441310,
Przez najbliższe 5 minut proszę kolorować otrzymaną kolorwankę z mandalą. Naciśnij spację aby zacząć odmierzać czas,,>>>>>,0,0,0,0,,,,,0,9,9,6,,,,,,,,,,,,,,,,,,,,,461.8295378769980,461.8295378769980,right,0,0.43136047397274500,,,,,,1,21,M,N,2023-01-03_10h29.40.510,Flanker,2022.2.4,92.38168178441310,
Przez najbliższe 5 minut proszę kolorować otrzymaną kolorwankę z mandalą. Naciśnij spację aby zacząć odmierzać czas,,>>>>>,0,0,0,0,,,,,0,10,10,1,,,,,,,,,,,,,,,,,,,,,463.2758875270370,463.2758875270370,right,0,0.4570070910267530,,,,,,1,21,M,N,2023-01-03_10h29.40.510,Flanker,2022.2.4,92.38168178441310,
Przez najbliższe 5 minut proszę kolorować otrzymaną kolorwankę z mandalą. Naciśnij spację aby zacząć odmierzać czas,,-->--,0,0,0,0,,,,,0,11,11,57,,,,,,,,,,,,,,,,,,,,,464.74069126998100,464.74069126998100,right,0,0.47308188409078900,,,,,,1,21,M,N,2023-01-03_10h29.40.510,Flanker,2022.2.4,92.38168178441310,
Przez najbliższe 5 minut proszę kolorować otrzymaną kolorwankę z mandalą. Naciśnij spację aby zacząć odmierzać czas,,>>>>>,0,0,0,0,,,,,0,12,12,4,,,,,,,,,,,,,,,,,,,,,466.22350172302700,466.22350172302700,right,0,0.42038253298960600,,,,,,1,21,M,N,2023-01-03_10h29.40.510,Flanker,2022.2.4,92.38168178441310,
Przez najbliższe 5 minut proszę kolorować otrzymaną kolorwankę z mandalą. Naciśnij spację aby zacząć odmierzać czas,,--<--,0,0,0,0,,,,,0,13,13,45,,,,,,,,,,,,,,,,,,,,,467.6657029950290,467.6657029950290,left,0,0.39105031499639200,,,,,,1,21,M,N,2023-01-03_10h29.40.510,Flanker,2022.2.4,92.38168178441310,
Przez najbliższe 5 minut proszę kolorować otrzymaną kolorwankę z mandalą. Naciśnij spację aby zacząć odmierzać czas,,>><>>,0,0,0,0,,,,,0,14,14,31,,,,,,,,,,,,,,,,,,,,,469.0673405129930,469.0673405129930,left,0,0.6094527700915930,,,,,,1,21,M,N,2023-01-03_10h29.40.510,Flanker,2022.2.4,92.38168178441310,
Przez najbliższe 5 minut proszę kolorować otrzymaną kolorwankę z mandalą. Naciśnij spację aby zacząć odmierzać czas,,--<--,0,0,0,0,,,,,0,15,15,49,,,,,,,,,,,,,,,,,,,,,470.68917340494200,470.68917340494200,left,0,0.3935741250170400,,,,,,1,21,M,N,2023-01-03_10h29.40.510,Flanker,2022.2.4,92.38168178441310,
Przez najbliższe 5 minut proszę kolorować otrzymaną kolorwankę z mandalą. Naciśnij spację aby zacząć odmierzać czas,,>>>>>,0,0,0,0,,,,,0,16,16,2,,,,,,,,,,,,,,,,,,,,,472.09247920604000,472.09247920604000,right,0,0.5761048920685430,,,,,,1,21,M,N,2023-01-03_10h29.40.510,Flanker,2022.2.4,92.38168178441310,
Przez najbliższe 5 minut proszę kolorować otrzymaną kolorwankę z mandalą. Naciśnij spację aby zacząć odmierzać czas,,--<--,0,0,0,0,,,,,0,17,17,41,,,,,,,,,,,,,,,,,,,,,473.6968597850060,473.6968597850060,left,0,0.3727947269799190,,,,,,1,21,M,N,2023-01-03_10h29.40.510,Flanker,2022.2.4,92.38168178441310,
Przez najbliższe 5 minut proszę kolorować otrzymaną kolorwankę z mandalą. Naciśnij spację aby zacząć odmierzać czas,,--<--,0,0,0,0,,,,,0,18,18,44,,,,,,,,,,,,,,,,,,,,,475.09842210193200,475.09842210193200,left,0,0.371259693056345,,,,,,1,21,M,N,2023-01-03_10h29.40.510,Flanker,2022.2.4,92.38168178441310,
Przez najbliższe 5 minut proszę kolorować otrzymaną kolorwankę z mandalą. Naciśnij spację aby zacząć odmierzać czas,,>><>>,0,0,0,0,,,,,0,19,19,37,,,,,,,,,,,,,,,,,,,,,476.48296796600300,476.48296796600300,left,0,0.518639413989149,,,,,,1,21,M,N,2023-01-03_10h29.40.510,Flanker,2022.2.4,92.38168178441310,
Przez najbliższe 5 minut proszę kolorować otrzymaną kolorwankę z mandalą. Naciśnij spację aby zacząć odmierzać czas,,-->--,0,0,0,0,,,,,0,20,20,52,,,,,,,,,,,,,,,,,,,,,478.00736729893800,478.00736729893800,right,0,0.4112061960622670,,,,,,1,21,M,N,2023-01-03_10h29.40.510,Flanker,2022.2.4,92.38168178441310,
Przez najbliższe 5 minut proszę kolorować otrzymaną kolorwankę z mandalą. Naciśnij spację aby zacząć odmierzać czas,,<<><<,0,0,0,0,,,,,0,21,21,29,,,,,,,,,,,,,,,,,,,,,479.4319174719280,479.4319174719280,right,0,0.5205560079775750,,,,,,1,21,M,N,2023-01-03_10h29.40.510,Flanker,2022.2.4,92.38168178441310,
Przez najbliższe 5 minut proszę kolorować otrzymaną kolorwankę z mandalą. Naciśnij spację aby zacząć odmierzać czas,,<<><<,0,0,0,0,,,,,0,22,22,22,,,,,,,,,,,,,,,,,,,,,480.96551571099600,480.96551571099600,left,0,0.3750770519254730,,,,,,1,21,M,N,2023-01-03_10h29.40.510,Flanker,2022.2.4,92.38168178441310,
Przez najbliższe 5 minut proszę kolorować otrzymaną kolorwankę z mandalą. Naciśnij spację aby zacząć odmierzać czas,,<<><<,0,0,0,0,,,,,0,23,23,24,,,,,,,,,,,,,,,,,,,,,482.3548968959370,482.3548968959370,right,0,0.4856417450355370,,,,,,1,21,M,N,2023-01-03_10h29.40.510,Flanker,2022.2.4,92.38168178441310,
Przez najbliższe 5 minut proszę kolorować otrzymaną kolorwankę z mandalą. Naciśnij spację aby zacząć odmierzać czas,,>>>>>,0,0,0,0,,,,,0,24,24,0,,,,,,,,,,,,,,,,,,,,,483.8503631480270,483.8503631480270,right,0,0.4351174560142680,,,,,,1,21,M,N,2023-01-03_10h29.40.510,Flanker,2022.2.4,92.38168178441310,
Przez najbliższe 5 minut proszę kolorować otrzymaną kolorwankę z mandalą. Naciśnij spację aby zacząć odmierzać czas,,-->--,0,0,0,0,,,,,0,25,25,55,,,,,,,,,,,,,,,,,,,,,485.313690206036,485.313690206036,right,0,0.4437295279931280,,,,,,1,21,M,N,2023-01-03_10h29.40.510,Flanker,2022.2.4,92.38168178441310,
Przez najbliższe 5 minut proszę kolorować otrzymaną kolorwankę z mandalą. Naciśnij spację aby zacząć odmierzać czas,,<<><<,0,0,0,0,,,,,0,26,26,28,,,,,,,,,,,,,,,,,,,,,486.7665013630180,486.7665013630180,right,0,0.5208162000635640,,,,,,1,21,M,N,2023-01-03_10h29.40.510,Flanker,2022.2.4,92.38168178441310,
Przez najbliższe 5 minut proszę kolorować otrzymaną kolorwankę z mandalą. Naciśnij spację aby zacząć odmierzać czas,,<<<<<,0,0,0,0,,,,,0,27,27,18,,,,,,,,,,,,,,,,,,,,,488.2930025330280,488.2930025330280,left,0,0.40122270805295600,,,,,,1,21,M,N,2023-01-03_10h29.40.510,Flanker,2022.2.4,92.38168178441310,
Przez najbliższe 5 minut proszę kolorować otrzymaną kolorwankę z mandalą. Naciśnij spację aby zacząć odmierzać czas,,--<--,0,0,0,0,,,,,0,28,28,48,,,,,,,,,,,,,,,,,,,,,489.6986014689320,489.6986014689320,left,0,0.4166727300034840,,,,,,1,21,M,N,2023-01-03_10h29.40.510,Flanker,2022.2.4,92.38168178441310,
Przez najbliższe 5 minut proszę kolorować otrzymaną kolorwankę z mandalą. Naciśnij spację aby zacząć odmierzać czas,,>><>>,0,0,0,0,,,,,0,29,29,35,,,,,,,,,,,,,,,,,,,,,491.12237606197600,491.12237606197600,left,0,0.6388538589235400,,,,,,1,21,M,N,2023-01-03_10h29.40.510,Flanker,2022.2.4,92.38168178441310,
Przez najbliższe 5 minut proszę kolorować otrzymaną kolorwankę z mandalą. Naciśnij spację aby zacząć odmierzać czas,,>><>>,0,0,0,0,,,,,0,30,30,30,,,,,,,,,,,,,,,,,,,,,492.758372833021,492.758372833021,left,0,0.4177434230223300,,,,,,1,21,M,N,2023-01-03_10h29.40.510,Flanker,2022.2.4,92.38168178441310,
Przez najbliższe 5 minut proszę kolorować otrzymaną kolorwankę z mandalą. Naciśnij spację aby zacząć odmierzać czas,,-->--,0,0,0,0,,,,,0,31,31,50,,,,,,,,,,,,,,,,,,,,,494.1855470769810,494.1855470769810,right,0,0.45354176801629400,,,,,,1,21,M,N,2023-01-03_10h29.40.510,Flanker,2022.2.4,92.38168178441310,
Przez najbliższe 5 minut proszę kolorować otrzymaną kolorwankę z mandalą. Naciśnij spację aby zacząć odmierzać czas,,>>>>>,0,0,0,0,,,,,0,32,32,9,,,,,,,,,,,,,,,,,,,,,495.6543196620190,495.6543196620190,right,0,0.42180007009301300,,,,,,1,21,M,N,2023-01-03_10h29.40.510,Flanker,2022.2.4,92.38168178441310,
Przez najbliższe 5 minut proszę kolorować otrzymaną kolorwankę z mandalą. Naciśnij spację aby zacząć odmierzać czas,,-->--,0,0,0,0,,,,,0,33,33,54,,,,,,,,,,,,,,,,,,,,,497.0870438480050,497.0870438480050,right,0,0.37303862895350900,,,,,,1,21,M,N,2023-01-03_10h29.40.510,Flanker,2022.2.4,92.38168178441310,
Przez najbliższe 5 minut proszę kolorować otrzymaną kolorwankę z mandalą. Naciśnij spację aby zacząć odmierzać czas,,<<<<<,0,0,0,0,,,,,0,34,34,16,,,,,,,,,,,,,,,,,,,,,498.46639681898500,498.46639681898500,left,0,0.3926428660051900,,,,,,1,21,M,N,2023-01-03_10h29.40.510,Flanker,2022.2.4,92.38168178441310,
Przez najbliższe 5 minut proszę kolorować otrzymaną kolorwankę z mandalą. Naciśnij spację aby zacząć odmierzać czas,,--<--,0,0,0,0,,,,,0,35,35,40,,,,,,,,,,,,,,,,,,,,,499.87082212697700,499.87082212697700,left,0,0.36110164294950700,,,,,,1,21,M,N,2023-01-03_10h29.40.510,Flanker,2022.2.4,92.38168178441310,
Przez najbliższe 5 minut proszę kolorować otrzymaną kolorwankę z mandalą. Naciśnij spację aby zacząć odmierzać czas,,<<<<<,0,0,0,0,,,,,0,36,36,10,,,,,,,,,,,,,,,,,,,,,501.2421385339690,501.2421385339690,left,0,0.36685148801188900,,,,,,1,21,M,N,2023-01-03_10h29.40.510,Flanker,2022.2.4,92.38168178441310,
Przez najbliższe 5 minut proszę kolorować otrzymaną kolorwankę z mandalą. Naciśnij spację aby zacząć odmierzać czas,,>><>>,0,0,0,0,,,,,0,37,37,39,,,,,,,,,,,,,,,,,,,,,502.61549256998100,502.61549256998100,left,0,0.5584184559993450,,,,,,1,21,M,N,2023-01-03_10h29.40.510,Flanker,2022.2.4,92.38168178441310,
Przez najbliższe 5 minut proszę kolorować otrzymaną kolorwankę z mandalą. Naciśnij spację aby zacząć odmierzać czas,,>><>>,0,0,0,0,,,,,0,38,38,32,,,,,,,,,,,,,,,,,,,,,504.1751231419620,504.1751231419620,left,0,0.3756346210138870,,,,,,1,21,M,N,2023-01-03_10h29.40.510,Flanker,2022.2.4,92.38168178441310,
Przez najbliższe 5 minut proszę kolorować otrzymaną kolorwankę z mandalą. Naciśnij spację aby zacząć odmierzać czas,,-->--,0,0,0,0,,,,,0,39,39,58,,,,,,,,,,,,,,,,,,,,,505.56468116899500,505.56468116899500,right,0,0.422175787971355,,,,,,1,21,M,N,2023-01-03_10h29.40.510,Flanker,2022.2.4,92.38168178441310,
Przez najbliższe 5 minut proszę kolorować otrzymaną kolorwankę z mandalą. Naciśnij spację aby zacząć odmierzać czas,,>>>>>,0,0,0,0,,,,,0,40,40,8,,,,,,,,,,,,,,,,,,,,,506.9934790909760,506.9934790909760,right,0,0.41942958906292900,,,,,,1,21,M,N,2023-01-03_10h29.40.510,Flanker,2022.2.4,92.38168178441310,
Przez najbliższe 5 minut proszę kolorować otrzymaną kolorwankę z mandalą. Naciśnij spację aby zacząć odmierzać czas,,>><>>,0,0,0,0,,,,,0,41,41,33,,,,,,,,,,,,,,,,,,,,,508.43172758899200,508.43172758899200,left,0,0.42409543797839400,,,,,,1,21,M,N,2023-01-03_10h29.40.510,Flanker,2022.2.4,92.38168178441310,
Przez najbliższe 5 minut proszę kolorować otrzymaną kolorwankę z mandalą. Naciśnij spację aby zacząć odmierzać czas,,<<><<,0,0,0,0,,,,,0,42,42,25,,,,,,,,,,,,,,,,,,,,,509.8676879010160,509.8676879010160,right,0,0.5150627930415790,,,,,,1,21,M,N,2023-01-03_10h29.40.510,Flanker,2022.2.4,92.38168178441310,
Przez najbliższe 5 minut proszę kolorować otrzymaną kolorwankę z mandalą. Naciśnij spację aby zacząć odmierzać czas,,>>>>>,0,0,0,0,,,,,0,43,43,7,,,,,,,,,,,,,,,,,,,,,511.3981442319930,511.3981442319930,right,0,0.3786092360969630,,,,,,1,21,M,N,2023-01-03_10h29.40.510,Flanker,2022.2.4,92.38168178441310,
Przez najbliższe 5 minut proszę kolorować otrzymaną kolorwankę z mandalą. Naciśnij spację aby zacząć odmierzać czas,,-->--,0,0,0,0,,,,,0,44,44,59,,,,,,,,,,,,,,,,,,,,,512.7885107810140,512.7885107810140,right,0,0.40308673901017800,,,,,,1,21,M,N,2023-01-03_10h29.40.510,Flanker,2022.2.4,92.38168178441310,
Przez najbliższe 5 minut proszę kolorować otrzymaną kolorwankę z mandalą. Naciśnij spację aby zacząć odmierzać czas,,--<--,0,0,0,0,,,,,0,45,45,42,,,,,,,,,,,,,,,,,,,,,514.2148170359430,514.2148170359430,left,0,0.3870455720461910,,,,,,1,21,M,N,2023-01-03_10h29.40.510,Flanker,2022.2.4,92.38168178441310,
Przez najbliższe 5 minut proszę kolorować otrzymaną kolorwankę z mandalą. Naciśnij spację aby zacząć odmierzać czas,,<<><<,0,0,0,0,,,,,0,46,46,20,,,,,,,,,,,,,,,,,,,,,515.6182345210110,515.6182345210110,right,0,0.48834091098979100,,,,,,1,21,M,N,2023-01-03_10h29.40.510,Flanker,2022.2.4,92.38168178441310,
Przez najbliższe 5 minut proszę kolorować otrzymaną kolorwankę z mandalą. Naciśnij spację aby zacząć odmierzać czas,,-->--,0,0,0,0,,,,,0,47,47,51,,,,,,,,,,,,,,,,,,,,,517.1247331519840,517.1247331519840,right,0,0.41871966200415000,,,,,,1,21,M,N,2023-01-03_10h29.40.510,Flanker,2022.2.4,92.38168178441310,
Przez najbliższe 5 minut proszę kolorować otrzymaną kolorwankę z mandalą. Naciśnij spację aby zacząć odmierzać czas,,<<><<,0,0,0,0,,,,,0,48,48,21,,,,,,,,,,,,,,,,,,,,,518.5534414899300,518.5534414899300,right,0,0.5451505420496690,,,,,,1,21,M,N,2023-01-03_10h29.40.510,Flanker,2022.2.4,92.38168178441310,
Przez najbliższe 5 minut proszę kolorować otrzymaną kolorwankę z mandalą. Naciśnij spację aby zacząć odmierzać czas,,<<><<,0,0,0,0,,,,,0,49,49,26,,,,,,,,,,,,,,,,,,,,,520.1098720569860,520.1098720569860,right,0,0.47371264500543500,,,,,,1,21,M,N,2023-01-03_10h29.40.510,Flanker,2022.2.4,92.38168178441310,
Przez najbliższe 5 minut proszę kolorować otrzymaną kolorwankę z mandalą. Naciśnij spację aby zacząć odmierzać czas,,<<<<<,0,0,0,0,,,,,0,50,50,11,,,,,,,,,,,,,,,,,,,,,521.5924603090390,521.5924603090390,left,0,0.4059027360053730,,,,,,1,21,M,N,2023-01-03_10h29.40.510,Flanker,2022.2.4,92.38168178441310,
Przez najbliższe 5 minut proszę kolorować otrzymaną kolorwankę z mandalą. Naciśnij spację aby zacząć odmierzać czas,,--<--,0,0,0,0,,,,,0,51,51,46,,,,,,,,,,,,,,,,,,,,,523.0083073879360,523.0083073879360,left,0,0.3840621029958130,,,,,,1,21,M,N,2023-01-03_10h29.40.510,Flanker,2022.2.4,92.38168178441310,
Przez najbliższe 5 minut proszę kolorować otrzymaną kolorwankę z mandalą. Naciśnij spację aby zacząć odmierzać czas,,-->--,0,0,0,0,,,,,0,52,52,53,,,,,,,,,,,,,,,,,,,,,524.3974881999890,524.3974881999890,right,0,0.5050937150372190,,,,,,1,21,M,N,2023-01-03_10h29.40.510,Flanker,2022.2.4,92.38168178441310,
Przez najbliższe 5 minut proszę kolorować otrzymaną kolorwankę z mandalą. Naciśnij spację aby zacząć odmierzać czas,,>><>>,0,0,0,0,,,,,0,53,53,34,,,,,,,,,,,,,,,,,,,,,525.9161761639410,525.9161761639410,left,0,0.48524079693015700,,,,,,1,21,M,N,2023-01-03_10h29.40.510,Flanker,2022.2.4,92.38168178441310,
Przez najbliższe 5 minut proszę kolorować otrzymaną kolorwankę z mandalą. Naciśnij spację aby zacząć odmierzać czas,,--<--,0,0,0,0,,,,,0,54,54,47,,,,,,,,,,,,,,,,,,,,,527.403308038949,527.403308038949,left,0,0.37991530902218100,,,,,,1,21,M,N,2023-01-03_10h29.40.510,Flanker,2022.2.4,92.38168178441310,
Przez najbliższe 5 minut proszę kolorować otrzymaną kolorwankę z mandalą. Naciśnij spację aby zacząć odmierzać czas,,<<<<<,0,0,0,0,,,,,0,55,55,12,,,,,,,,,,,,,,,,,,,,,528.7861536979910,528.7861536979910,left,0,0.4082513339817520,,,,,,1,21,M,N,2023-01-03_10h29.40.510,Flanker,2022.2.4,92.38168178441310,
Przez najbliższe 5 minut proszę kolorować otrzymaną kolorwankę z mandalą. Naciśnij spację aby zacząć odmierzać czas,,<<<<<,0,0,0,0,,,,,0,56,56,13,,,,,,,,,,,,,,,,,,,,,530.2037462629380,530.2037462629380,left,0,0.4125704870093610,,,,,,1,21,M,N,2023-01-03_10h29.40.510,Flanker,2022.2.4,92.38168178441310,
Przez najbliższe 5 minut proszę kolorować otrzymaną kolorwankę z mandalą. Naciśnij spację aby zacząć odmierzać czas,,<<<<<,0,0,0,0,,,,,0,57,57,19,,,,,,,,,,,,,,,,,,,,,531.6312029389670,531.6312029389670,left,0,0.3770599539857360,,,,,,1,21,M,N,2023-01-03_10h29.40.510,Flanker,2022.2.4,92.38168178441310,
Przez najbliższe 5 minut proszę kolorować otrzymaną kolorwankę z mandalą. Naciśnij spację aby zacząć odmierzać czas,,<<<<<,0,0,0,0,,,,,0,58,58,15,,,,,,,,,,,,,,,,,,,,,533.0310030169790,533.0310030169790,left,0,0.3431049430510030,,,,,,1,21,M,N,2023-01-03_10h29.40.510,Flanker,2022.2.4,92.38168178441310,
Przez najbliższe 5 minut proszę kolorować otrzymaną kolorwankę z mandalą. Naciśnij spację aby zacząć odmierzać czas,,-->--,0,0,0,0,,,,,0,59,59,56,,,,,,,,,,,,,,,,,,,,,534.3861526040130,534.3861526040130,right,0,0.44907482399139600,,,,,,1,21,M,N,2023-01-03_10h29.40.510,Flanker,2022.2.4,92.38168178441310,
Przez najbliższe 5 minut proszę kolorować otrzymaną kolorwankę z mandalą. Naciśnij spację aby zacząć odmierzać czas,,,0,0,0,0,,,,,,,,,,,,,,,,,,,,,,,,,,,,,,,,,,,,,,,1,21,M,N,2023-01-03_10h29.40.510,Flanker,2022.2.4,92.38168178441310,
Przez najbliższe 5 minut proszę kolorować otrzymaną pustą kartkę. Naciśnij spację aby zacząć odmierzać czas,>>>>>,,0,1,1,1,0,0,0,1,,,,,,,,,534.8806239819390,535.8355272329650,space,17.45493988506500,553.3133808550190,854.9837005769370,856.9667501889640,space,7.101438361918550,864.0827399479460,873.0786768399410,873.0786768399410,right,0,0.6384707520483060,,,,,,,,,,,,1,21,M,N,2023-01-03_10h29.40.510,Flanker,2022.2.4,92.38168178441310,
Przez najbliższe 5 minut proszę kolorować otrzymaną pustą kartkę. Naciśnij spację aby zacząć odmierzać czas,<<<<<,,0,1,1,1,0,1,1,0,,,,,,,,,,,,,,,,,,,874.7279169920370,874.7279169920370,left,0,0.4539678309811280,,,,,,,,,,,,1,21,M,N,2023-01-03_10h29.40.510,Flanker,2022.2.4,92.38168178441310,
Przez najbliższe 5 minut proszę kolorować otrzymaną pustą kartkę. Naciśnij spację aby zacząć odmierzać czas,<<><<,,0,1,1,1,0,2,2,2,,,,,,,,,,,,,,,,,,,876.1948149909730,876.1948149909730,right,0,0.494069205946289,,,,,,,,,,,,1,21,M,N,2023-01-03_10h29.40.510,Flanker,2022.2.4,92.38168178441310,
Przez najbliższe 5 minut proszę kolorować otrzymaną pustą kartkę. Naciśnij spację aby zacząć odmierzać czas,>><>>,,0,1,1,1,0,3,3,3,,,,,,,,,,,,,,,,,,,877.7041571330050,877.7041571330050,left,0,0.5605700819287450,,,,,,,,,,,,1,21,M,N,2023-01-03_10h29.40.510,Flanker,2022.2.4,92.38168178441310,
Przez najbliższe 5 minut proszę kolorować otrzymaną pustą kartkę. Naciśnij spację aby zacząć odmierzać czas,--<--,,0,1,1,1,0,4,4,4,,,,,,,,,,,,,,,,,,,879.2711948499780,879.2711948499780,left,0,0.42349309602286700,,,,,,,,,,,,1,21,M,N,2023-01-03_10h29.40.510,Flanker,2022.2.4,92.38168178441310,
Przez najbliższe 5 minut proszę kolorować otrzymaną pustą kartkę. Naciśnij spację aby zacząć odmierzać czas,-->--,,0,1,1,1,0,5,5,5,,,,,,,,,,,,,,,,,,,880.7127514909950,880.7127514909950,right,0,0.36298921902198300,,,,,,,,,,,,1,21,M,N,2023-01-03_10h29.40.510,Flanker,2022.2.4,92.38168178441310,
Przez najbliższe 5 minut proszę kolorować otrzymaną pustą kartkę. Naciśnij spację aby zacząć odmierzać czas,,<<<<<,0,1,1,1,,,,,0,0,0,19,,,,,,,,,,,,,,,,,,,,882.0862546620190,890.0831361080050,890.0831361080050,left,0,0.4404473270988090,889.0988501409300,,,,,1,21,M,N,2023-01-03_10h29.40.510,Flanker,2022.2.4,92.38168178441310,
Przez najbliższe 5 minut proszę kolorować otrzymaną pustą kartkę. Naciśnij spację aby zacząć odmierzać czas,,-->--,0,1,1,1,,,,,0,1,1,50,,,,,,,,,,,,,,,,,,,,,891.5342702670020,891.5342702670020,right,0,0.3481276429956780,,,,,,1,21,M,N,2023-01-03_10h29.40.510,Flanker,2022.2.4,92.38168178441310,
Przez najbliższe 5 minut proszę kolorować otrzymaną pustą kartkę. Naciśnij spację aby zacząć odmierzać czas,,>><>>,0,1,1,1,,,,,0,2,2,38,,,,,,,,,,,,,,,,,,,,,892.8823752839820,892.8823752839820,left,0,0.42081727203913000,,,,,,1,21,M,N,2023-01-03_10h29.40.510,Flanker,2022.2.4,92.38168178441310,
Przez najbliższe 5 minut proszę kolorować otrzymaną pustą kartkę. Naciśnij spację aby zacząć odmierzać czas,,>>>>>,0,1,1,1,,,,,0,3,3,3,,,,,,,,,,,,,,,,,,,,,894.320651771035,894.320651771035,right,0,0.34557091700844500,,,,,,1,21,M,N,2023-01-03_10h29.40.510,Flanker,2022.2.4,92.38168178441310,
Przez najbliższe 5 minut proszę kolorować otrzymaną pustą kartkę. Naciśnij spację aby zacząć odmierzać czas,,<<><<,0,1,1,1,,,,,0,4,4,25,,,,,,,,,,,,,,,,,,,,,895.6768285019790,895.6768285019790,right,0,0.4724344640271740,,,,,,1,21,M,N,2023-01-03_10h29.40.510,Flanker,2022.2.4,92.38168178441310,
Przez najbliższe 5 minut proszę kolorować otrzymaną pustą kartkę. Naciśnij spację aby zacząć odmierzać czas,,<<><<,0,1,1,1,,,,,0,5,5,28,,,,,,,,,,,,,,,,,,,,,897.1582010079870,897.1582010079870,right,0,0.47890712099615500,,,,,,1,21,M,N,2023-01-03_10h29.40.510,Flanker,2022.2.4,92.38168178441310,
Przez najbliższe 5 minut proszę kolorować otrzymaną pustą kartkę. Naciśnij spację aby zacząć odmierzać czas,,<<<<<,0,1,1,1,,,,,0,6,6,14,,,,,,,,,,,,,,,,,,,,,898.6573912079910,898.6573912079910,left,0,0.3697572760283950,,,,,,1,21,M,N,2023-01-03_10h29.40.510,Flanker,2022.2.4,92.38168178441310,
Przez najbliższe 5 minut proszę kolorować otrzymaną pustą kartkę. Naciśnij spację aby zacząć odmierzać czas,,<<><<,0,1,1,1,,,,,0,7,7,26,,,,,,,,,,,,,,,,,,,,,900.043156418018,900.043156418018,right,0,0.39905920799356000,,,,,,1,21,M,N,2023-01-03_10h29.40.510,Flanker,2022.2.4,92.38168178441310,
Przez najbliższe 5 minut proszę kolorować otrzymaną pustą kartkę. Naciśnij spację aby zacząć odmierzać czas,,>>>>>,0,1,1,1,,,,,0,8,8,2,,,,,,,,,,,,,,,,,,,,,901.449282555026,901.449282555026,right,0,0.36180698999669400,,,,,,1,21,M,N,2023-01-03_10h29.40.510,Flanker,2022.2.4,92.38168178441310,
Przez najbliższe 5 minut proszę kolorować otrzymaną pustą kartkę. Naciśnij spację aby zacząć odmierzać czas,,--<--,0,1,1,1,,,,,0,9,9,47,,,,,,,,,,,,,,,,,,,,,902.8291542879310,902.8291542879310,left,0,0.37389732291922000,,,,,,1,21,M,N,2023-01-03_10h29.40.510,Flanker,2022.2.4,92.38168178441310,
Przez najbliższe 5 minut proszę kolorować otrzymaną pustą kartkę. Naciśnij spację aby zacząć odmierzać czas,,<<><<,0,1,1,1,,,,,0,10,10,27,,,,,,,,,,,,,,,,,,,,,904.2202629570380,904.2202629570380,right,0,0.415754385991022,,,,,,1,21,M,N,2023-01-03_10h29.40.510,Flanker,2022.2.4,92.38168178441310,
Przez najbliższe 5 minut proszę kolorować otrzymaną pustą kartkę. Naciśnij spację aby zacząć odmierzać czas,,-->--,0,1,1,1,,,,,0,11,11,52,,,,,,,,,,,,,,,,,,,,,905.6456141889790,905.6456141889790,right,0,0.3823896370595320,,,,,,1,21,M,N,2023-01-03_10h29.40.510,Flanker,2022.2.4,92.38168178441310,
Przez najbliższe 5 minut proszę kolorować otrzymaną pustą kartkę. Naciśnij spację aby zacząć odmierzać czas,,>>>>>,0,1,1,1,,,,,0,12,12,4,,,,,,,,,,,,,,,,,,,,,907.029598077992,907.029598077992,right,0,0.34740643994882700,,,,,,1,21,M,N,2023-01-03_10h29.40.510,Flanker,2022.2.4,92.38168178441310,
Przez najbliższe 5 minut proszę kolorować otrzymaną pustą kartkę. Naciśnij spację aby zacząć odmierzać czas,,--<--,0,1,1,1,,,,,0,13,13,42,,,,,,,,,,,,,,,,,,,,,908.3866220419300,908.3866220419300,left,0,0.37029236799571700,,,,,,1,21,M,N,2023-01-03_10h29.40.510,Flanker,2022.2.4,92.38168178441310,
Przez najbliższe 5 minut proszę kolorować otrzymaną pustą kartkę. Naciśnij spację aby zacząć odmierzać czas,,-->--,0,1,1,1,,,,,0,14,14,58,,,,,,,,,,,,,,,,,,,,,909.7674625129440,909.7674625129440,right,0,0.3525040108943360,,,,,,1,21,M,N,2023-01-03_10h29.40.510,Flanker,2022.2.4,92.38168178441310,
Przez najbliższe 5 minut proszę kolorować otrzymaną pustą kartkę. Naciśnij spację aby zacząć odmierzać czas,,<<><<,0,1,1,1,,,,,0,15,15,24,,,,,,,,,,,,,,,,,,,,,911.1321852159450,911.1321852159450,right,0,0.5206777899293230,,,,,,1,21,M,N,2023-01-03_10h29.40.510,Flanker,2022.2.4,92.38168178441310,
Przez najbliższe 5 minut proszę kolorować otrzymaną pustą kartkę. Naciśnij spację aby zacząć odmierzać czas,,<<<<<,0,1,1,1,,,,,0,16,16,18,,,,,,,,,,,,,,,,,,,,,912.6700993520210,912.6700993520210,left,0,0.4186622890410950,,,,,,1,21,M,N,2023-01-03_10h29.40.510,Flanker,2022.2.4,92.38168178441310,
Przez najbliższe 5 minut proszę kolorować otrzymaną pustą kartkę. Naciśnij spację aby zacząć odmierzać czas,,>><>>,0,1,1,1,,,,,0,17,17,33,,,,,,,,,,,,,,,,,,,,,914.1095703030010,914.1095703030010,left,0,0.45124537497758900,,,,,,1,21,M,N,2023-01-03_10h29.40.510,Flanker,2022.2.4,92.38168178441310,
Przez najbliższe 5 minut proszę kolorować otrzymaną pustą kartkę. Naciśnij spację aby zacząć odmierzać czas,,>><>>,0,1,1,1,,,,,0,18,18,30,,,,,,,,,,,,,,,,,,,,,915.565831869957,915.565831869957,left,0,0.48096137994434700,,,,,,1,21,M,N,2023-01-03_10h29.40.510,Flanker,2022.2.4,92.38168178441310,
Przez najbliższe 5 minut proszę kolorować otrzymaną pustą kartkę. Naciśnij spację aby zacząć odmierzać czas,,<<<<<,0,1,1,1,,,,,0,19,19,15,,,,,,,,,,,,,,,,,,,,,917.0625599279300,917.0625599279300,left,0,0.36916103202384000,,,,,,1,21,M,N,2023-01-03_10h29.40.510,Flanker,2022.2.4,92.38168178441310,
Przez najbliższe 5 minut proszę kolorować otrzymaną pustą kartkę. Naciśnij spację aby zacząć odmierzać czas,,>><>>,0,1,1,1,,,,,0,20,20,35,,,,,,,,,,,,,,,,,,,,,918.4366778859400,918.4366778859400,left,0,0.4229911910369990,,,,,,1,21,M,N,2023-01-03_10h29.40.510,Flanker,2022.2.4,92.38168178441310,
Przez najbliższe 5 minut proszę kolorować otrzymaną pustą kartkę. Naciśnij spację aby zacząć odmierzać czas,,<<><<,0,1,1,1,,,,,0,21,21,20,,,,,,,,,,,,,,,,,,,,,919.860718521988,919.860718521988,right,0,0.4447555810911580,,,,,,1,21,M,N,2023-01-03_10h29.40.510,Flanker,2022.2.4,92.38168178441310,
Przez najbliższe 5 minut proszę kolorować otrzymaną pustą kartkę. Naciśnij spację aby zacząć odmierzać czas,,>>>>> ,0,1,1,1,,,,,0,22,22,5,,,,,,,,,,,,,,,,,,,,,921.3260070829420,921.3260070829420,right,0,0.37766548607032700,,,,,,1,21,M,N,2023-01-03_10h29.40.510,Flanker,2022.2.4,92.38168178441310,
Przez najbliższe 5 minut proszę kolorować otrzymaną pustą kartkę. Naciśnij spację aby zacząć odmierzać czas,,>>>>>,0,1,1,1,,,,,0,23,23,0,,,,,,,,,,,,,,,,,,,,,922.7154327699680,922.7154327699680,right,0,0.38013477297499800,,,,,,1,21,M,N,2023-01-03_10h29.40.510,Flanker,2022.2.4,92.38168178441310,
Przez najbliższe 5 minut proszę kolorować otrzymaną pustą kartkę. Naciśnij spację aby zacząć odmierzać czas,,>><>>,0,1,1,1,,,,,0,24,24,37,,,,,,,,,,,,,,,,,,,,,924.1123734980360,924.1123734980360,left,0,0.4751395389903340,,,,,,1,21,M,N,2023-01-03_10h29.40.510,Flanker,2022.2.4,92.38168178441310,
Przez najbliższe 5 minut proszę kolorować otrzymaną pustą kartkę. Naciśnij spację aby zacząć odmierzać czas,,<<<<<,0,1,1,1,,,,,0,25,25,11,,,,,,,,,,,,,,,,,,,,,925.5988579869740,925.5988579869740,left,0,0.40562737896107100,,,,,,1,21,M,N,2023-01-03_10h29.40.510,Flanker,2022.2.4,92.38168178441310,
Przez najbliższe 5 minut proszę kolorować otrzymaną pustą kartkę. Naciśnij spację aby zacząć odmierzać czas,,-->--,0,1,1,1,,,,,0,26,26,53,,,,,,,,,,,,,,,,,,,,,927.026043551974,927.026043551974,right,0,0.4053827209863810,,,,,,1,21,M,N,2023-01-03_10h29.40.510,Flanker,2022.2.4,92.38168178441310,
Przez najbliższe 5 minut proszę kolorować otrzymaną pustą kartkę. Naciśnij spację aby zacząć odmierzać czas,,<<><<,0,1,1,1,,,,,0,27,27,29,,,,,,,,,,,,,,,,,,,,,928.4366334310030,928.4366334310030,right,0,0.5178050539689140,,,,,,1,21,M,N,2023-01-03_10h29.40.510,Flanker,2022.2.4,92.38168178441310,
Przez najbliższe 5 minut proszę kolorować otrzymaną pustą kartkę. Naciśnij spację aby zacząć odmierzać czas,,-->--,0,1,1,1,,,,,0,28,28,57,,,,,,,,,,,,,,,,,,,,,929.965024141944,929.965024141944,right,0,0.3973001301055770,,,,,,1,21,M,N,2023-01-03_10h29.40.510,Flanker,2022.2.4,92.38168178441310,
Przez najbliższe 5 minut proszę kolorować otrzymaną pustą kartkę. Naciśnij spację aby zacząć odmierzać czas,,<<<<<,0,1,1,1,,,,,0,29,29,13,,,,,,,,,,,,,,,,,,,,,931.3650642780120,931.3650642780120,left,0,0.43029161100275800,,,,,,1,21,M,N,2023-01-03_10h29.40.510,Flanker,2022.2.4,92.38168178441310,
Przez najbliższe 5 minut proszę kolorować otrzymaną pustą kartkę. Naciśnij spację aby zacząć odmierzać czas,,-->--,0,1,1,1,,,,,0,30,30,55,,,,,,,,,,,,,,,,,,,,,932.8032559040000,932.8032559040000,right,0,0.39287480409257100,,,,,,1,21,M,N,2023-01-03_10h29.40.510,Flanker,2022.2.4,92.38168178441310,
Przez najbliższe 5 minut proszę kolorować otrzymaną pustą kartkę. Naciśnij spację aby zacząć odmierzać czas,,<<><<,0,1,1,1,,,,,0,31,31,21,,,,,,,,,,,,,,,,,,,,,934.1954376919890,934.1954376919890,right,0,0.4528538748854770,,,,,,1,21,M,N,2023-01-03_10h29.40.510,Flanker,2022.2.4,92.38168178441310,
Przez najbliższe 5 minut proszę kolorować otrzymaną pustą kartkę. Naciśnij spację aby zacząć odmierzać czas,,--<--,0,1,1,1,,,,,0,32,32,43,,,,,,,,,,,,,,,,,,,,,935.6760633819500,935.6760633819500,left,0,0.34823964396491600,,,,,,1,21,M,N,2023-01-03_10h29.40.510,Flanker,2022.2.4,92.38168178441310,
Przez najbliższe 5 minut proszę kolorować otrzymaną pustą kartkę. Naciśnij spację aby zacząć odmierzać czas,,>><>>,0,1,1,1,,,,,0,33,33,32,,,,,,,,,,,,,,,,,,,,,937.0284062440040,937.0284062440040,left,0,0.5569358490174640,,,,,,1,21,M,N,2023-01-03_10h29.40.510,Flanker,2022.2.4,92.38168178441310,
Przez najbliższe 5 minut proszę kolorować otrzymaną pustą kartkę. Naciśnij spację aby zacząć odmierzać czas,,>><>>,0,1,1,1,,,,,0,34,34,31,,,,,,,,,,,,,,,,,,,,,938.5984859989260,938.5984859989260,left,0,0.5238543470622970,,,,,,1,21,M,N,2023-01-03_10h29.40.510,Flanker,2022.2.4,92.38168178441310,
Przez najbliższe 5 minut proszę kolorować otrzymaną pustą kartkę. Naciśnij spację aby zacząć odmierzać czas,,--<--,0,1,1,1,,,,,0,35,35,45,,,,,,,,,,,,,,,,,,,,,940.1311846040190,940.1311846040190,left,0,0.4388985530240460,,,,,,1,21,M,N,2023-01-03_10h29.40.510,Flanker,2022.2.4,92.38168178441310,
Przez najbliższe 5 minut proszę kolorować otrzymaną pustą kartkę. Naciśnij spację aby zacząć odmierzać czas,,--<--,0,1,1,1,,,,,0,36,36,44,,,,,,,,,,,,,,,,,,,,,941.5925019569700,941.5925019569700,left,0,0.35958768404088900,,,,,,1,21,M,N,2023-01-03_10h29.40.510,Flanker,2022.2.4,92.38168178441310,
Przez najbliższe 5 minut proszę kolorować otrzymaną pustą kartkę. Naciśnij spację aby zacząć odmierzać czas,,--<--,0,1,1,1,,,,,0,37,37,49,,,,,,,,,,,,,,,,,,,,,942.9525679619980,942.9525679619980,left,0,0.35752276494167700,,,,,,1,21,M,N,2023-01-03_10h29.40.510,Flanker,2022.2.4,92.38168178441310,
Przez najbliższe 5 minut proszę kolorować otrzymaną pustą kartkę. Naciśnij spację aby zacząć odmierzać czas,,>>>>>,0,1,1,1,,,,,0,38,38,1,,,,,,,,,,,,,,,,,,,,,944.3198472609510,944.3198472609510,right,0,0.3952075249981140,,,,,,1,21,M,N,2023-01-03_10h29.40.510,Flanker,2022.2.4,92.38168178441310,
Przez najbliższe 5 minut proszę kolorować otrzymaną pustą kartkę. Naciśnij spację aby zacząć odmierzać czas,,-->--,0,1,1,1,,,,,0,39,39,51,,,,,,,,,,,,,,,,,,,,,945.7285245399690,945.7285245399690,right,0,0.3683732560602950,,,,,,1,21,M,N,2023-01-03_10h29.40.510,Flanker,2022.2.4,92.38168178441310,
Przez najbliższe 5 minut proszę kolorować otrzymaną pustą kartkę. Naciśnij spację aby zacząć odmierzać czas,,<<<<<,0,1,1,1,,,,,0,40,40,17,,,,,,,,,,,,,,,,,,,,,947.1139199599860,947.1139199599860,left,0,0.3659464039374140,,,,,,1,21,M,N,2023-01-03_10h29.40.510,Flanker,2022.2.4,92.38168178441310,
Przez najbliższe 5 minut proszę kolorować otrzymaną pustą kartkę. Naciśnij spację aby zacząć odmierzać czas,,--<--,0,1,1,1,,,,,0,41,41,41,,,,,,,,,,,,,,,,,,,,,948.4865564029900,948.4865564029900,left,0,0.3413938069716100,,,,,,1,21,M,N,2023-01-03_10h29.40.510,Flanker,2022.2.4,92.38168178441310,
Przez najbliższe 5 minut proszę kolorować otrzymaną pustą kartkę. Naciśnij spację aby zacząć odmierzać czas,,-->--,0,1,1,1,,,,,0,42,42,56,,,,,,,,,,,,,,,,,,,,,949.8302937889240,949.8302937889240,right,0,0.34862024104222700,,,,,,1,21,M,N,2023-01-03_10h29.40.510,Flanker,2022.2.4,92.38168178441310,
Przez najbliższe 5 minut proszę kolorować otrzymaną pustą kartkę. Naciśnij spację aby zacząć odmierzać czas,,<<><<,0,1,1,1,,,,,0,43,43,23,,,,,,,,,,,,,,,,,,,,,951.19230327697,951.19230327697,left,0,0.36557920393534000,,,,,,1,21,M,N,2023-01-03_10h29.40.510,Flanker,2022.2.4,92.38168178441310,
Przez najbliższe 5 minut proszę kolorować otrzymaną pustą kartkę. Naciśnij spację aby zacząć odmierzać czas,,-->--,0,1,1,1,,,,,0,44,44,54,,,,,,,,,,,,,,,,,,,,,952.56379827403,952.56379827403,right,0,0.3899192300159480,,,,,,1,21,M,N,2023-01-03_10h29.40.510,Flanker,2022.2.4,92.38168178441310,
Przez najbliższe 5 minut proszę kolorować otrzymaną pustą kartkę. Naciśnij spację aby zacząć odmierzać czas,,>>>>>,0,1,1,1,,,,,0,45,45,7,,,,,,,,,,,,,,,,,,,,,953.9700932790290,953.9700932790290,right,0,0.4117865380831060,,,,,,1,21,M,N,2023-01-03_10h29.40.510,Flanker,2022.2.4,92.38168178441310,
Przez najbliższe 5 minut proszę kolorować otrzymaną pustą kartkę. Naciśnij spację aby zacząć odmierzać czas,,>>>>>,0,1,1,1,,,,,0,46,46,8,,,,,,,,,,,,,,,,,,,,,955.3950328800130,955.3950328800130,right,0,0.3467422449029980,,,,,,1,21,M,N,2023-01-03_10h29.40.510,Flanker,2022.2.4,92.38168178441310,
Przez najbliższe 5 minut proszę kolorować otrzymaną pustą kartkę. Naciśnij spację aby zacząć odmierzać czas,,>>>>>,0,1,1,1,,,,,0,47,47,6,,,,,,,,,,,,,,,,,,,,,956.7523800289490,956.7523800289490,right,0,0.39715333690401200,,,,,,1,21,M,N,2023-01-03_10h29.40.510,Flanker,2022.2.4,92.38168178441310,
Przez najbliższe 5 minut proszę kolorować otrzymaną pustą kartkę. Naciśnij spację aby zacząć odmierzać czas,,>>>>>,0,1,1,1,,,,,0,48,48,9,,,,,,,,,,,,,,,,,,,,,958.1644979679260,958.1644979679260,right,0,0.35827358695678400,,,,,,1,21,M,N,2023-01-03_10h29.40.510,Flanker,2022.2.4,92.38168178441310,
Przez najbliższe 5 minut proszę kolorować otrzymaną pustą kartkę. Naciśnij spację aby zacząć odmierzać czas,,--<--,0,1,1,1,,,,,0,49,49,40,,,,,,,,,,,,,,,,,,,,,959.5435099169850,959.5435099169850,left,0,0.39720487606246000,,,,,,1,21,M,N,2023-01-03_10h29.40.510,Flanker,2022.2.4,92.38168178441310,
Przez najbliższe 5 minut proszę kolorować otrzymaną pustą kartkę. Naciśnij spację aby zacząć odmierzać czas,,<<<<<,0,1,1,1,,,,,0,50,50,12,,,,,,,,,,,,,,,,,,,,,960.9422005569800,960.9422005569800,left,0,0.4114433059003200,,,,,,1,21,M,N,2023-01-03_10h29.40.510,Flanker,2022.2.4,92.38168178441310,
Przez najbliższe 5 minut proszę kolorować otrzymaną pustą kartkę. Naciśnij spację aby zacząć odmierzać czas,,>><>>,0,1,1,1,,,,,0,51,51,39,,,,,,,,,,,,,,,,,,,,,962.365594615927,962.365594615927,left,0,0.536100089084357,,,,,,1,21,M,N,2023-01-03_10h29.40.510,Flanker,2022.2.4,92.38168178441310,
Przez najbliższe 5 minut proszę kolorować otrzymaną pustą kartkę. Naciśnij spację aby zacząć odmierzać czas,,--<--,0,1,1,1,,,,,0,52,52,48,,,,,,,,,,,,,,,,,,,,,963.9088897670150,963.9088897670150,left,0,0.5717633300228040,,,,,,1,21,M,N,2023-01-03_10h29.40.510,Flanker,2022.2.4,92.38168178441310,
Przez najbliższe 5 minut proszę kolorować otrzymaną pustą kartkę. Naciśnij spację aby zacząć odmierzać czas,,>><>>,0,1,1,1,,,,,0,53,53,36,,,,,,,,,,,,,,,,,,,,,965.4951305279970,965.4951305279970,left,0,0.8855727129848670,,,,,,1,21,M,N,2023-01-03_10h29.40.510,Flanker,2022.2.4,92.38168178441310,
Przez najbliższe 5 minut proszę kolorować otrzymaną pustą kartkę. Naciśnij spację aby zacząć odmierzać czas,,-->--,0,1,1,1,,,,,0,54,54,59,,,,,,,,,,,,,,,,,,,,,967.392153920955,967.392153920955,right,0,0.6013986290199680,,,,,,1,21,M,N,2023-01-03_10h29.40.510,Flanker,2022.2.4,92.38168178441310,
Przez najbliższe 5 minut proszę kolorować otrzymaną pustą kartkę. Naciśnij spację aby zacząć odmierzać czas,,<<<<<,0,1,1,1,,,,,0,55,55,10,,,,,,,,,,,,,,,,,,,,,969.0088988270150,969.0088988270150,left,0,0.5565974679775540,,,,,,1,21,M,N,2023-01-03_10h29.40.510,Flanker,2022.2.4,92.38168178441310,
Przez najbliższe 5 minut proszę kolorować otrzymaną pustą kartkę. Naciśnij spację aby zacząć odmierzać czas,,--<--,0,1,1,1,,,,,0,56,56,46,,,,,,,,,,,,,,,,,,,,,970.5754353299270,970.5754353299270,left,0,0.3639348379801960,,,,,,1,21,M,N,2023-01-03_10h29.40.510,Flanker,2022.2.4,92.38168178441310,
Przez najbliższe 5 minut proszę kolorować otrzymaną pustą kartkę. Naciśnij spację aby zacząć odmierzać czas,,<<<<<,0,1,1,1,,,,,0,57,57,16,,,,,,,,,,,,,,,,,,,,,971.9420215979920,971.9420215979920,left,0,0.41226367303170300,,,,,,1,21,M,N,2023-01-03_10h29.40.510,Flanker,2022.2.4,92.38168178441310,
Przez najbliższe 5 minut proszę kolorować otrzymaną pustą kartkę. Naciśnij spację aby zacząć odmierzać czas,,<<><<,0,1,1,1,,,,,0,58,58,22,,,,,,,,,,,,,,,,,,,,,973.3647007390390,973.3647007390390,right,0,0.4145413489313800,,,,,,1,21,M,N,2023-01-03_10h29.40.510,Flanker,2022.2.4,92.38168178441310,
Przez najbliższe 5 minut proszę kolorować otrzymaną pustą kartkę. Naciśnij spację aby zacząć odmierzać czas,,>><>>,0,1,1,1,,,,,0,59,59,34,,,,,,,,,,,,,,,,,,,,,974.7807531099530,974.7807531099530,left,0,0.4805125630227850,,,,,,1,21,M,N,2023-01-03_10h29.40.510,Flanker,2022.2.4,92.38168178441310,
Przez najbliższe 5 minut proszę kolorować otrzymaną pustą kartkę. Naciśnij spację aby zacząć odmierzać czas,,,0,1,1,1,,,,,,,,,,,,,,,,,,,,,,,,,,,,,,,,,,,,,,,1,21,M,N,2023-01-03_10h29.40.510,Flanker,2022.2.4,92.38168178441310,
,,,,,,,,,,,,,,,,,,,,,,,,,,,,,,,,,,,,,,,,,976.2715591019950,976.2715591019950,space,2.0076565199997300,1,21,M,N,2023-01-03_10h29.40.510,Flanker,2022.2.4,92.38168178441310,