kolorowanka,Example,Stimuli,proby.thisRepN,proby.thisTrialN,proby.thisN,proby.thisIndex,zapoznanie.thisRepN,zapoznanie.thisTrialN,zapoznanie.thisN,zapoznanie.thisIndex,Warunki.thisRepN,Warunki.thisTrialN,Warunki.thisN,Warunki.thisIndex,Intro.started,Intro_resp.started,Intro_resp.keys,Intro_resp.rt,Kolorowanie1.started,starttt.started,starttt.keys,starttt.rt,koloruj.started,Instruction.started,key_resp.started,key_resp.keys,key_resp.rt,Wyjasnienie.started,text.started,odp_przyk.started,odp_przyk.keys,odp_przyk.corr,odp_przyk.rt,zapo.started,Zadanie.started,Odp.started,Odp.keys,Odp.corr,Odp.rt,zapo.stopped,thanks.started,KONIEC.started,KONIEC.keys,KONIEC.rt,participant,Wiek (w latach),Płeć (K/M),Entropia,date,expName,psychopyVersion,frameRate,
,,,,,,,,,,,,,,,27.77123053499963,29.755253718001768,space,15.414108181954361,,,,,,,,,,,,,,,,,,,,,,,,,,,20,18,K,W,2023-01-05_13h40.09.216,Flanker,2022.2.4,None,
Przez najbliższe 5 minut proszę kolorować otrzymaną kolorwankę z mandalą. Naciśnij spację aby zacząć odmierzać czas,>><>>,,0,0,0,0,0,0,0,3,,,,,,,,,45.217465021065436,46.1878170541022,space,9.571267643943429,55.827029216103256,355.79362810309976,357.780723744072,space,25.341217874083668,383.196891291067,392.14113797503524,392.14113797503524,left,0,1.8942412619944662,,,,,,,,,,,,20,18,K,W,2023-01-05_13h40.09.216,Flanker,2022.2.4,None,
Przez najbliższe 5 minut proszę kolorować otrzymaną kolorwankę z mandalą. Naciśnij spację aby zacząć odmierzać czas,--<--,,0,0,0,0,0,1,1,4,,,,,,,,,,,,,,,,,,,395.05520544108003,395.05520544108003,left,0,0.6728045680793002,,,,,,,,,,,,20,18,K,W,2023-01-05_13h40.09.216,Flanker,2022.2.4,None,
Przez najbliższe 5 minut proszę kolorować otrzymaną kolorwankę z mandalą. Naciśnij spację aby zacząć odmierzać czas,<<<<<,,0,0,0,0,0,2,2,0,,,,,,,,,,,,,,,,,,,396.73975393606815,396.73975393606815,left,0,0.629202624084428,,,,,,,,,,,,20,18,K,W,2023-01-05_13h40.09.216,Flanker,2022.2.4,None,
Przez najbliższe 5 minut proszę kolorować otrzymaną kolorwankę z mandalą. Naciśnij spację aby zacząć odmierzać czas,-->--,,0,0,0,0,0,3,3,5,,,,,,,,,,,,,,,,,,,398.38233424408827,398.38233424408827,right,0,0.4925692930119112,,,,,,,,,,,,20,18,K,W,2023-01-05_13h40.09.216,Flanker,2022.2.4,None,
Przez najbliższe 5 minut proszę kolorować otrzymaną kolorwankę z mandalą. Naciśnij spację aby zacząć odmierzać czas,<<><<,,0,0,0,0,0,4,4,2,,,,,,,,,,,,,,,,,,,399.89835925400257,399.89835925400257,right,0,0.7414079189766198,,,,,,,,,,,,20,18,K,W,2023-01-05_13h40.09.216,Flanker,2022.2.4,None,
Przez najbliższe 5 minut proszę kolorować otrzymaną kolorwankę z mandalą. Naciśnij spację aby zacząć odmierzać czas,>>>>>,,0,0,0,0,0,5,5,1,,,,,,,,,,,,,,,,,,,401.6627588090487,401.6627588090487,right,0,0.5492469610180706,,,,,,,,,,,,20,18,K,W,2023-01-05_13h40.09.216,Flanker,2022.2.4,None,
Przez najbliższe 5 minut proszę kolorować otrzymaną kolorwankę z mandalą. Naciśnij spację aby zacząć odmierzać czas,,-->--,0,0,0,0,,,,,0,0,0,55,,,,,,,,,,,,,,,,,,,,403.22439388907515,411.22142429603264,411.22142429603264,right,0,0.556314999004826,,,,,,20,18,K,W,2023-01-05_13h40.09.216,Flanker,2022.2.4,None,
Przez najbliższe 5 minut proszę kolorować otrzymaną kolorwankę z mandalą. Naciśnij spację aby zacząć odmierzać czas,,-->--,0,0,0,0,,,,,0,1,1,52,,,,,,,,,,,,,,,,,,,,,412.7884426440578,412.7884426440578,right,0,0.3742025470128283,,,,,,20,18,K,W,2023-01-05_13h40.09.216,Flanker,2022.2.4,None,
Przez najbliższe 5 minut proszę kolorować otrzymaną kolorwankę z mandalą. Naciśnij spację aby zacząć odmierzać czas,,<<><<,0,0,0,0,,,,,0,2,2,26,,,,,,,,,,,,,,,,,,,,,414.17192423401866,414.17192423401866,right,0,0.685716558014974,,,,,,20,18,K,W,2023-01-05_13h40.09.216,Flanker,2022.2.4,None,
Przez najbliższe 5 minut proszę kolorować otrzymaną kolorwankę z mandalą. Naciśnij spację aby zacząć odmierzać czas,,>>>>>,0,0,0,0,,,,,0,3,3,2,,,,,,,,,,,,,,,,,,,,,415.8831477930071,415.8831477930071,right,0,0.6854504300281405,,,,,,20,18,K,W,2023-01-05_13h40.09.216,Flanker,2022.2.4,None,
Przez najbliższe 5 minut proszę kolorować otrzymaną kolorwankę z mandalą. Naciśnij spację aby zacząć odmierzać czas,,-->--,0,0,0,0,,,,,0,4,4,50,,,,,,,,,,,,,,,,,,,,,417.58348440006375,417.58348440006375,right,0,0.6361442490015179,,,,,,20,18,K,W,2023-01-05_13h40.09.216,Flanker,2022.2.4,None,
Przez najbliższe 5 minut proszę kolorować otrzymaną kolorwankę z mandalą. Naciśnij spację aby zacząć odmierzać czas,,<<><<,0,0,0,0,,,,,0,5,5,21,,,,,,,,,,,,,,,,,,,,,419.23859656904824,419.23859656904824,right,0,0.7358872999902815,,,,,,20,18,K,W,2023-01-05_13h40.09.216,Flanker,2022.2.4,None,
Przez najbliższe 5 minut proszę kolorować otrzymaną kolorwankę z mandalą. Naciśnij spację aby zacząć odmierzać czas,,<<><<,0,0,0,0,,,,,0,6,6,22,,,,,,,,,,,,,,,,,,,,,420.9816828670446,420.9816828670446,right,0,0.6247017428977415,,,,,,20,18,K,W,2023-01-05_13h40.09.216,Flanker,2022.2.4,None,
Przez najbliższe 5 minut proszę kolorować otrzymaną kolorwankę z mandalą. Naciśnij spację aby zacząć odmierzać czas,,<<<<<,0,0,0,0,,,,,0,7,7,16,,,,,,,,,,,,,,,,,,,,,422.6341842710972,422.6341842710972,left,0,0.7253518720390275,,,,,,20,18,K,W,2023-01-05_13h40.09.216,Flanker,2022.2.4,None,
Przez najbliższe 5 minut proszę kolorować otrzymaną kolorwankę z mandalą. Naciśnij spację aby zacząć odmierzać czas,,--<--,0,0,0,0,,,,,0,8,8,48,,,,,,,,,,,,,,,,,,,,,424.37188822601456,424.37188822601456,left,0,0.5486296419985592,,,,,,20,18,K,W,2023-01-05_13h40.09.216,Flanker,2022.2.4,None,
Przez najbliższe 5 minut proszę kolorować otrzymaną kolorwankę z mandalą. Naciśnij spację aby zacząć odmierzać czas,,>><>>,0,0,0,0,,,,,0,9,9,37,,,,,,,,,,,,,,,,,,,,,425.94437475700397,425.94437475700397,left,0,0.7690664479741827,,,,,,20,18,K,W,2023-01-05_13h40.09.216,Flanker,2022.2.4,None,
Przez najbliższe 5 minut proszę kolorować otrzymaną kolorwankę z mandalą. Naciśnij spację aby zacząć odmierzać czas,,>><>>,0,0,0,0,,,,,0,10,10,38,,,,,,,,,,,,,,,,,,,,,427.7356212940067,427.7356212940067,left,0,0.6917792409658432,,,,,,20,18,K,W,2023-01-05_13h40.09.216,Flanker,2022.2.4,None,
Przez najbliższe 5 minut proszę kolorować otrzymaną kolorwankę z mandalą. Naciśnij spację aby zacząć odmierzać czas,,--<--,0,0,0,0,,,,,0,11,11,45,,,,,,,,,,,,,,,,,,,,,429.4434691130882,429.4434691130882,left,0,0.48975234699901193,,,,,,20,18,K,W,2023-01-05_13h40.09.216,Flanker,2022.2.4,None,
Przez najbliższe 5 minut proszę kolorować otrzymaną kolorwankę z mandalą. Naciśnij spację aby zacząć odmierzać czas,,--<--,0,0,0,0,,,,,0,12,12,42,,,,,,,,,,,,,,,,,,,,,430.95424267905764,430.95424267905764,left,0,0.4789322220021859,,,,,,20,18,K,W,2023-01-05_13h40.09.216,Flanker,2022.2.4,None,
Przez najbliższe 5 minut proszę kolorować otrzymaną kolorwankę z mandalą. Naciśnij spację aby zacząć odmierzać czas,,>>>>>,0,0,0,0,,,,,0,13,13,7,,,,,,,,,,,,,,,,,,,,,432.4381239460781,432.4381239460781,right,0,0.5871001849882305,,,,,,20,18,K,W,2023-01-05_13h40.09.216,Flanker,2022.2.4,None,
Przez najbliższe 5 minut proszę kolorować otrzymaną kolorwankę z mandalą. Naciśnij spację aby zacząć odmierzać czas,,<<<<<,0,0,0,0,,,,,0,14,14,12,,,,,,,,,,,,,,,,,,,,,434.0788172550965,434.0788172550965,left,0,0.4983177579706535,,,,,,20,18,K,W,2023-01-05_13h40.09.216,Flanker,2022.2.4,None,
Przez najbliższe 5 minut proszę kolorować otrzymaną kolorwankę z mandalą. Naciśnij spację aby zacząć odmierzać czas,,>>>>>,0,0,0,0,,,,,0,15,15,6,,,,,,,,,,,,,,,,,,,,,435.58315456309356,435.58315456309356,right,0,0.9289160890039057,,,,,,20,18,K,W,2023-01-05_13h40.09.216,Flanker,2022.2.4,None,
Przez najbliższe 5 minut proszę kolorować otrzymaną kolorwankę z mandalą. Naciśnij spację aby zacząć odmierzać czas,,>><>>,0,0,0,0,,,,,0,16,16,36,,,,,,,,,,,,,,,,,,,,,437.5424520560773,437.5424520560773,left,0,0.7726920219138265,,,,,,20,18,K,W,2023-01-05_13h40.09.216,Flanker,2022.2.4,None,
Przez najbliższe 5 minut proszę kolorować otrzymaną kolorwankę z mandalą. Naciśnij spację aby zacząć odmierzać czas,,--<--,0,0,0,0,,,,,0,17,17,43,,,,,,,,,,,,,,,,,,,,,439.31776743009686,439.31776743009686,left,0,0.5784073179820552,,,,,,20,18,K,W,2023-01-05_13h40.09.216,Flanker,2022.2.4,None,
Przez najbliższe 5 minut proszę kolorować otrzymaną kolorwankę z mandalą. Naciśnij spację aby zacząć odmierzać czas,,<<<<<,0,0,0,0,,,,,0,18,18,15,,,,,,,,,,,,,,,,,,,,,440.91093551006634,440.91093551006634,left,0,0.5111215359065682,,,,,,20,18,K,W,2023-01-05_13h40.09.216,Flanker,2022.2.4,None,
Przez najbliższe 5 minut proszę kolorować otrzymaną kolorwankę z mandalą. Naciśnij spację aby zacząć odmierzać czas,,>><>>,0,0,0,0,,,,,0,19,19,35,,,,,,,,,,,,,,,,,,,,,442.4332020319998,442.4332020319998,left,0,0.5769124520011246,,,,,,20,18,K,W,2023-01-05_13h40.09.216,Flanker,2022.2.4,None,
Przez najbliższe 5 minut proszę kolorować otrzymaną kolorwankę z mandalą. Naciśnij spację aby zacząć odmierzać czas,,>>>>>,0,0,0,0,,,,,0,20,20,4,,,,,,,,,,,,,,,,,,,,,444.02609170100186,444.02609170100186,right,0,0.8751832029083744,,,,,,20,18,K,W,2023-01-05_13h40.09.216,Flanker,2022.2.4,None,
Przez najbliższe 5 minut proszę kolorować otrzymaną kolorwankę z mandalą. Naciśnij spację aby zacząć odmierzać czas,,--<--,0,0,0,0,,,,,0,21,21,41,,,,,,,,,,,,,,,,,,,,,445.9213587240083,445.9213587240083,left,0,0.704598341952078,,,,,,20,18,K,W,2023-01-05_13h40.09.216,Flanker,2022.2.4,None,
Przez najbliższe 5 minut proszę kolorować otrzymaną kolorwankę z mandalą. Naciśnij spację aby zacząć odmierzać czas,,-->--,0,0,0,0,,,,,0,22,22,51,,,,,,,,,,,,,,,,,,,,,447.6456798100844,447.6456798100844,right,0,0.4813096399884671,,,,,,20,18,K,W,2023-01-05_13h40.09.216,Flanker,2022.2.4,None,
Przez najbliższe 5 minut proszę kolorować otrzymaną kolorwankę z mandalą. Naciśnij spację aby zacząć odmierzać czas,,>><>>,0,0,0,0,,,,,0,23,23,30,,,,,,,,,,,,,,,,,,,,,449.14442498306744,449.14442498306744,left,0,0.548509874031879,,,,,,20,18,K,W,2023-01-05_13h40.09.216,Flanker,2022.2.4,None,
Przez najbliższe 5 minut proszę kolorować otrzymaną kolorwankę z mandalą. Naciśnij spację aby zacząć odmierzać czas,,-->--,0,0,0,0,,,,,0,24,24,57,,,,,,,,,,,,,,,,,,,,,450.7001466040965,450.7001466040965,right,0,0.4396742199314758,,,,,,20,18,K,W,2023-01-05_13h40.09.216,Flanker,2022.2.4,None,
Przez najbliższe 5 minut proszę kolorować otrzymaną kolorwankę z mandalą. Naciśnij spację aby zacząć odmierzać czas,,--<--,0,0,0,0,,,,,0,25,25,40,,,,,,,,,,,,,,,,,,,,,452.1590143170906,452.1590143170906,left,0,0.4839112099725753,,,,,,20,18,K,W,2023-01-05_13h40.09.216,Flanker,2022.2.4,None,
Przez najbliższe 5 minut proszę kolorować otrzymaną kolorwankę z mandalą. Naciśnij spację aby zacząć odmierzać czas,,>>>>>,0,0,0,0,,,,,0,26,26,1,,,,,,,,,,,,,,,,,,,,,453.65159283205867,453.65159283205867,right,0,0.5021105830091983,,,,,,20,18,K,W,2023-01-05_13h40.09.216,Flanker,2022.2.4,None,
Przez najbliższe 5 minut proszę kolorować otrzymaną kolorwankę z mandalą. Naciśnij spację aby zacząć odmierzać czas,,-->--,0,0,0,0,,,,,0,27,27,59,,,,,,,,,,,,,,,,,,,,,455.16266531602014,455.16266531602014,right,0,0.503223791019991,,,,,,20,18,K,W,2023-01-05_13h40.09.216,Flanker,2022.2.4,None,
Przez najbliższe 5 minut proszę kolorować otrzymaną kolorwankę z mandalą. Naciśnij spację aby zacząć odmierzać czas,,>>>>> ,0,0,0,0,,,,,0,28,28,5,,,,,,,,,,,,,,,,,,,,,456.68524474010337,456.68524474010337,right,0,0.5195354679599404,,,,,,20,18,K,W,2023-01-05_13h40.09.216,Flanker,2022.2.4,None,
Przez najbliższe 5 minut proszę kolorować otrzymaną kolorwankę z mandalą. Naciśnij spację aby zacząć odmierzać czas,,-->--,0,0,0,0,,,,,0,29,29,53,,,,,,,,,,,,,,,,,,,,,458.2226410380099,458.2226410380099,right,0,0.4830178100382909,,,,,,20,18,K,W,2023-01-05_13h40.09.216,Flanker,2022.2.4,None,
Przez najbliższe 5 minut proszę kolorować otrzymaną kolorwankę z mandalą. Naciśnij spację aby zacząć odmierzać czas,,<<<<<,0,0,0,0,,,,,0,30,30,10,,,,,,,,,,,,,,,,,,,,,459.73116559907794,459.73116559907794,left,0,0.4786065489752218,,,,,,20,18,K,W,2023-01-05_13h40.09.216,Flanker,2022.2.4,None,
Przez najbliższe 5 minut proszę kolorować otrzymaną kolorwankę z mandalą. Naciśnij spację aby zacząć odmierzać czas,,-->--,0,0,0,0,,,,,0,31,31,54,,,,,,,,,,,,,,,,,,,,,461.2221081140451,461.2221081140451,right,0,0.48037455801386386,,,,,,20,18,K,W,2023-01-05_13h40.09.216,Flanker,2022.2.4,None,
Przez najbliższe 5 minut proszę kolorować otrzymaną kolorwankę z mandalą. Naciśnij spację aby zacząć odmierzać czas,,-->--,0,0,0,0,,,,,0,32,32,58,,,,,,,,,,,,,,,,,,,,,462.7292008110089,462.7292008110089,right,0,0.46130421000998467,,,,,,20,18,K,W,2023-01-05_13h40.09.216,Flanker,2022.2.4,None,
Przez najbliższe 5 minut proszę kolorować otrzymaną kolorwankę z mandalą. Naciśnij spację aby zacząć odmierzać czas,,>><>>,0,0,0,0,,,,,0,33,33,31,,,,,,,,,,,,,,,,,,,,,464.2125157730188,464.2125157730188,left,0,0.5590342119103298,,,,,,20,18,K,W,2023-01-05_13h40.09.216,Flanker,2022.2.4,None,
Przez najbliższe 5 minut proszę kolorować otrzymaną kolorwankę z mandalą. Naciśnij spację aby zacząć odmierzać czas,,>><>>,0,0,0,0,,,,,0,34,34,32,,,,,,,,,,,,,,,,,,,,,465.7869554910576,465.7869554910576,left,0,0.5814774759346619,,,,,,20,18,K,W,2023-01-05_13h40.09.216,Flanker,2022.2.4,None,
Przez najbliższe 5 minut proszę kolorować otrzymaną kolorwankę z mandalą. Naciśnij spację aby zacząć odmierzać czas,,>><>>,0,0,0,0,,,,,0,35,35,34,,,,,,,,,,,,,,,,,,,,,467.37892648903653,467.37892648903653,left,0,0.5846517040627077,,,,,,20,18,K,W,2023-01-05_13h40.09.216,Flanker,2022.2.4,None,
Przez najbliższe 5 minut proszę kolorować otrzymaną kolorwankę z mandalą. Naciśnij spację aby zacząć odmierzać czas,,<<><<,0,0,0,0,,,,,0,36,36,28,,,,,,,,,,,,,,,,,,,,,468.98345950909425,468.98345950909425,right,0,0.6641167019261047,,,,,,20,18,K,W,2023-01-05_13h40.09.216,Flanker,2022.2.4,None,
Przez najbliższe 5 minut proszę kolorować otrzymaną kolorwankę z mandalą. Naciśnij spację aby zacząć odmierzać czas,,<<><<,0,0,0,0,,,,,0,37,37,27,,,,,,,,,,,,,,,,,,,,,470.6613138030516,470.6613138030516,right,0,0.8291275799274445,,,,,,20,18,K,W,2023-01-05_13h40.09.216,Flanker,2022.2.4,None,
Przez najbliższe 5 minut proszę kolorować otrzymaną kolorwankę z mandalą. Naciśnij spację aby zacząć odmierzać czas,,<<<<<,0,0,0,0,,,,,0,38,38,19,,,,,,,,,,,,,,,,,,,,,472.5039394800551,472.5039394800551,left,0,0.6454426139825955,,,,,,20,18,K,W,2023-01-05_13h40.09.216,Flanker,2022.2.4,None,
Przez najbliższe 5 minut proszę kolorować otrzymaną kolorwankę z mandalą. Naciśnij spację aby zacząć odmierzać czas,,<<><<,0,0,0,0,,,,,0,39,39,24,,,,,,,,,,,,,,,,,,,,,474.1657544800546,474.1657544800546,right,0,0.6446306690340862,,,,,,20,18,K,W,2023-01-05_13h40.09.216,Flanker,2022.2.4,None,
Przez najbliższe 5 minut proszę kolorować otrzymaną kolorwankę z mandalą. Naciśnij spację aby zacząć odmierzać czas,,<<<<<,0,0,0,0,,,,,0,40,40,14,,,,,,,,,,,,,,,,,,,,,475.82709579507355,475.82709579507355,left,0,0.5252837350126356,,,,,,20,18,K,W,2023-01-05_13h40.09.216,Flanker,2022.2.4,None,
Przez najbliższe 5 minut proszę kolorować otrzymaną kolorwankę z mandalą. Naciśnij spację aby zacząć odmierzać czas,,<<<<<,0,0,0,0,,,,,0,41,41,13,,,,,,,,,,,,,,,,,,,,,477.35368951701093,477.35368951701093,left,0,0.5665567009709775,,,,,,20,18,K,W,2023-01-05_13h40.09.216,Flanker,2022.2.4,None,
Przez najbliższe 5 minut proszę kolorować otrzymaną kolorwankę z mandalą. Naciśnij spację aby zacząć odmierzać czas,,--<--,0,0,0,0,,,,,0,42,42,46,,,,,,,,,,,,,,,,,,,,,478.9300976260565,478.9300976260565,left,0,0.6581523750210181,,,,,,20,18,K,W,2023-01-05_13h40.09.216,Flanker,2022.2.4,None,
Przez najbliższe 5 minut proszę kolorować otrzymaną kolorwankę z mandalą. Naciśnij spację aby zacząć odmierzać czas,,--<--,0,0,0,0,,,,,0,43,43,44,,,,,,,,,,,,,,,,,,,,,480.6033791070804,480.6033791070804,left,0,0.5168428750475869,,,,,,20,18,K,W,2023-01-05_13h40.09.216,Flanker,2022.2.4,None,
Przez najbliższe 5 minut proszę kolorować otrzymaną kolorwankę z mandalą. Naciśnij spację aby zacząć odmierzać czas,,<<><<,0,0,0,0,,,,,0,44,44,23,,,,,,,,,,,,,,,,,,,,,482.14355643698946,482.14355643698946,right,0,0.8367206110851839,,,,,,20,18,K,W,2023-01-05_13h40.09.216,Flanker,2022.2.4,None,
Przez najbliższe 5 minut proszę kolorować otrzymaną kolorwankę z mandalą. Naciśnij spację aby zacząć odmierzać czas,,>>>>>,0,0,0,0,,,,,0,45,45,3,,,,,,,,,,,,,,,,,,,,,483.9900231860811,483.9900231860811,right,0,0.5051895219366997,,,,,,20,18,K,W,2023-01-05_13h40.09.216,Flanker,2022.2.4,None,
Przez najbliższe 5 minut proszę kolorować otrzymaną kolorwankę z mandalą. Naciśnij spację aby zacząć odmierzać czas,,--<--,0,0,0,0,,,,,0,46,46,49,,,,,,,,,,,,,,,,,,,,,485.51355273800436,485.51355273800436,left,0,0.6536464199889451,,,,,,20,18,K,W,2023-01-05_13h40.09.216,Flanker,2022.2.4,None,
Przez najbliższe 5 minut proszę kolorować otrzymaną kolorwankę z mandalą. Naciśnij spację aby zacząć odmierzać czas,,>>>>>,0,0,0,0,,,,,0,47,47,0,,,,,,,,,,,,,,,,,,,,,487.1798587520607,487.1798587520607,right,0,0.6412810600595549,,,,,,20,18,K,W,2023-01-05_13h40.09.216,Flanker,2022.2.4,None,
Przez najbliższe 5 minut proszę kolorować otrzymaną kolorwankę z mandalą. Naciśnij spację aby zacząć odmierzać czas,,>><>>,0,0,0,0,,,,,0,48,48,39,,,,,,,,,,,,,,,,,,,,,488.8322394239949,488.8322394239949,left,0,0.7929210159927607,,,,,,20,18,K,W,2023-01-05_13h40.09.216,Flanker,2022.2.4,None,
Przez najbliższe 5 minut proszę kolorować otrzymaną kolorwankę z mandalą. Naciśnij spację aby zacząć odmierzać czas,,<<><<,0,0,0,0,,,,,0,49,49,29,,,,,,,,,,,,,,,,,,,,,490.6439955680398,490.6439955680398,right,0,0.5901010179659352,,,,,,20,18,K,W,2023-01-05_13h40.09.216,Flanker,2022.2.4,None,
Przez najbliższe 5 minut proszę kolorować otrzymaną kolorwankę z mandalą. Naciśnij spację aby zacząć odmierzać czas,,>><>>,0,0,0,0,,,,,0,50,50,33,,,,,,,,,,,,,,,,,,,,,492.2435622680932,492.2435622680932,left,0,0.7635215600021183,,,,,,20,18,K,W,2023-01-05_13h40.09.216,Flanker,2022.2.4,None,
Przez najbliższe 5 minut proszę kolorować otrzymaną kolorwankę z mandalą. Naciśnij spację aby zacząć odmierzać czas,,--<--,0,0,0,0,,,,,0,51,51,47,,,,,,,,,,,,,,,,,,,,,494.0301462310599,494.0301462310599,left,0,0.6139336739433929,,,,,,20,18,K,W,2023-01-05_13h40.09.216,Flanker,2022.2.4,None,
Przez najbliższe 5 minut proszę kolorować otrzymaną kolorwankę z mandalą. Naciśnij spację aby zacząć odmierzać czas,,>>>>>,0,0,0,0,,,,,0,52,52,9,,,,,,,,,,,,,,,,,,,,,495.66014288610313,495.66014288610313,right,0,0.5448573590256274,,,,,,20,18,K,W,2023-01-05_13h40.09.216,Flanker,2022.2.4,None,
Przez najbliższe 5 minut proszę kolorować otrzymaną kolorwankę z mandalą. Naciśnij spację aby zacząć odmierzać czas,,<<<<<,0,0,0,0,,,,,0,53,53,11,,,,,,,,,,,,,,,,,,,,,497.2203896570718,497.2203896570718,left,0,0.5265567309688777,,,,,,20,18,K,W,2023-01-05_13h40.09.216,Flanker,2022.2.4,None,
Przez najbliższe 5 minut proszę kolorować otrzymaną kolorwankę z mandalą. Naciśnij spację aby zacząć odmierzać czas,,<<<<<,0,0,0,0,,,,,0,54,54,18,,,,,,,,,,,,,,,,,,,,,498.766871673055,498.766871673055,left,0,0.5080392969539389,,,,,,20,18,K,W,2023-01-05_13h40.09.216,Flanker,2022.2.4,None,
Przez najbliższe 5 minut proszę kolorować otrzymaną kolorwankę z mandalą. Naciśnij spację aby zacząć odmierzać czas,,<<><<,0,0,0,0,,,,,0,55,55,20,,,,,,,,,,,,,,,,,,,,,500.28772749600466,500.28772749600466,right,0,0.6450778000289574,,,,,,20,18,K,W,2023-01-05_13h40.09.216,Flanker,2022.2.4,None,
Przez najbliższe 5 minut proszę kolorować otrzymaną kolorwankę z mandalą. Naciśnij spację aby zacząć odmierzać czas,,<<><<,0,0,0,0,,,,,0,56,56,25,,,,,,,,,,,,,,,,,,,,,501.9462010570569,501.9462010570569,right,0,0.5576847979100421,,,,,,20,18,K,W,2023-01-05_13h40.09.216,Flanker,2022.2.4,None,
Przez najbliższe 5 minut proszę kolorować otrzymaną kolorwankę z mandalą. Naciśnij spację aby zacząć odmierzać czas,,<<<<<,0,0,0,0,,,,,0,57,57,17,,,,,,,,,,,,,,,,,,,,,503.5305453951005,503.5305453951005,left,0,0.5012256250483915,,,,,,20,18,K,W,2023-01-05_13h40.09.216,Flanker,2022.2.4,None,
Przez najbliższe 5 minut proszę kolorować otrzymaną kolorwankę z mandalą. Naciśnij spację aby zacząć odmierzać czas,,-->--,0,0,0,0,,,,,0,58,58,56,,,,,,,,,,,,,,,,,,,,,505.0819174069911,505.0819174069911,right,0,0.5048708260292187,,,,,,20,18,K,W,2023-01-05_13h40.09.216,Flanker,2022.2.4,None,
Przez najbliższe 5 minut proszę kolorować otrzymaną kolorwankę z mandalą. Naciśnij spację aby zacząć odmierzać czas,,>>>>>,0,0,0,0,,,,,0,59,59,8,,,,,,,,,,,,,,,,,,,,,506.60436740505975,506.60436740505975,right,0,0.46934903401415795,,,,,,20,18,K,W,2023-01-05_13h40.09.216,Flanker,2022.2.4,None,
Przez najbliższe 5 minut proszę kolorować otrzymaną kolorwankę z mandalą. Naciśnij spację aby zacząć odmierzać czas,,,0,0,0,0,,,,,,,,,,,,,,,,,,,,,,,,,,,,,,,,,,,,,,,20,18,K,W,2023-01-05_13h40.09.216,Flanker,2022.2.4,None,
Przez najbliższe 5 minut proszę kolorować otrzymaną pustą kartkę. Naciśnij spację aby zacząć odmierzać czas,-->--,,0,1,1,1,0,0,0,5,,,,,,,,,507.1195574440062,508.0876785190776,space,17.665774237015285,525.7847872060956,825.804313307046,827.7723687740508,space,13.72257095691748,841.5112755270675,850.5006108940579,850.5006108940579,right,0,0.604112557019107,,,,,,,,,,,,20,18,K,W,2023-01-05_13h40.09.216,Flanker,2022.2.4,None,
Przez najbliższe 5 minut proszę kolorować otrzymaną pustą kartkę. Naciśnij spację aby zacząć odmierzać czas,<<><<,,0,1,1,1,0,1,1,2,,,,,,,,,,,,,,,,,,,852.1254117870703,852.1254117870703,right,0,0.6384228880051523,,,,,,,,,,,,20,18,K,W,2023-01-05_13h40.09.216,Flanker,2022.2.4,None,
Przez najbliższe 5 minut proszę kolorować otrzymaną pustą kartkę. Naciśnij spację aby zacząć odmierzać czas,<<<<<,,0,1,1,1,0,2,2,0,,,,,,,,,,,,,,,,,,,853.7671854820801,853.7671854820801,left,0,0.4774881809717044,,,,,,,,,,,,20,18,K,W,2023-01-05_13h40.09.216,Flanker,2022.2.4,None,
Przez najbliższe 5 minut proszę kolorować otrzymaną pustą kartkę. Naciśnij spację aby zacząć odmierzać czas,--<--,,0,1,1,1,0,3,3,4,,,,,,,,,,,,,,,,,,,855.2611682290444,855.2611682290444,left,0,0.41060732305049896,,,,,,,,,,,,20,18,K,W,2023-01-05_13h40.09.216,Flanker,2022.2.4,None,
Przez najbliższe 5 minut proszę kolorować otrzymaną pustą kartkę. Naciśnij spację aby zacząć odmierzać czas,>>>>>,,0,1,1,1,0,4,4,1,,,,,,,,,,,,,,,,,,,856.6727093131049,856.6727093131049,right,0,0.6670438899891451,,,,,,,,,,,,20,18,K,W,2023-01-05_13h40.09.216,Flanker,2022.2.4,None,
Przez najbliższe 5 minut proszę kolorować otrzymaną pustą kartkę. Naciśnij spację aby zacząć odmierzać czas,>><>>,,0,1,1,1,0,5,5,3,,,,,,,,,,,,,,,,,,,858.3659331350354,858.3659331350354,left,0,0.6446793129434809,,,,,,,,,,,,20,18,K,W,2023-01-05_13h40.09.216,Flanker,2022.2.4,None,
Przez najbliższe 5 minut proszę kolorować otrzymaną pustą kartkę. Naciśnij spację aby zacząć odmierzać czas,,<<><<,0,1,1,1,,,,,0,0,0,20,,,,,,,,,,,,,,,,,,,,860.02495382505,868.015932193026,868.015932193026,right,0,0.850306818028912,867.0414249181049,,,,,20,18,K,W,2023-01-05_13h40.09.216,Flanker,2022.2.4,None,
Przez najbliższe 5 minut proszę kolorować otrzymaną pustą kartkę. Naciśnij spację aby zacząć odmierzać czas,,-->--,0,1,1,1,,,,,0,1,1,56,,,,,,,,,,,,,,,,,,,,,869.8816105700098,869.8816105700098,right,0,0.4822431349894032,,,,,,20,18,K,W,2023-01-05_13h40.09.216,Flanker,2022.2.4,None,
Przez najbliższe 5 minut proszę kolorować otrzymaną pustą kartkę. Naciśnij spację aby zacząć odmierzać czas,,-->--,0,1,1,1,,,,,0,2,2,52,,,,,,,,,,,,,,,,,,,,,871.3820906570181,871.3820906570181,right,0,0.40280109795276076,,,,,,20,18,K,W,2023-01-05_13h40.09.216,Flanker,2022.2.4,None,
Przez najbliższe 5 minut proszę kolorować otrzymaną pustą kartkę. Naciśnij spację aby zacząć odmierzać czas,,--<--,0,1,1,1,,,,,0,3,3,47,,,,,,,,,,,,,,,,,,,,,872.8201809111051,872.8201809111051,left,0,0.4726889720186591,,,,,,20,18,K,W,2023-01-05_13h40.09.216,Flanker,2022.2.4,None,
Przez najbliższe 5 minut proszę kolorować otrzymaną pustą kartkę. Naciśnij spację aby zacząć odmierzać czas,,>><>>,0,1,1,1,,,,,0,4,4,35,,,,,,,,,,,,,,,,,,,,,874.3130572430091,874.3130572430091,left,0,0.5687265250599012,,,,,,20,18,K,W,2023-01-05_13h40.09.216,Flanker,2022.2.4,None,
Przez najbliższe 5 minut proszę kolorować otrzymaną pustą kartkę. Naciśnij spację aby zacząć odmierzać czas,,--<--,0,1,1,1,,,,,0,5,5,42,,,,,,,,,,,,,,,,,,,,,875.895005291095,875.895005291095,left,0,0.3607926380354911,,,,,,20,18,K,W,2023-01-05_13h40.09.216,Flanker,2022.2.4,None,
Przez najbliższe 5 minut proszę kolorować otrzymaną pustą kartkę. Naciśnij spację aby zacząć odmierzać czas,,>>>>>,0,1,1,1,,,,,0,6,6,3,,,,,,,,,,,,,,,,,,,,,877.2720119160367,877.2720119160367,right,0,0.4077020880067721,,,,,,20,18,K,W,2023-01-05_13h40.09.216,Flanker,2022.2.4,None,
Przez najbliższe 5 minut proszę kolorować otrzymaną pustą kartkę. Naciśnij spację aby zacząć odmierzać czas,,>><>>,0,1,1,1,,,,,0,7,7,38,,,,,,,,,,,,,,,,,,,,,878.6835976029979,878.6835976029979,left,0,0.4273166779894382,,,,,,20,18,K,W,2023-01-05_13h40.09.216,Flanker,2022.2.4,None,
Przez najbliższe 5 minut proszę kolorować otrzymaną pustą kartkę. Naciśnij spację aby zacząć odmierzać czas,,<<<<<,0,1,1,1,,,,,0,8,8,17,,,,,,,,,,,,,,,,,,,,,880.1233248970238,880.1233248970238,left,0,0.3743108609924093,,,,,,20,18,K,W,2023-01-05_13h40.09.216,Flanker,2022.2.4,None,
Przez najbliższe 5 minut proszę kolorować otrzymaną pustą kartkę. Naciśnij spację aby zacząć odmierzać czas,,-->--,0,1,1,1,,,,,0,9,9,58,,,,,,,,,,,,,,,,,,,,,881.5278814790072,881.5278814790072,right,0,0.40485737298149616,,,,,,20,18,K,W,2023-01-05_13h40.09.216,Flanker,2022.2.4,None,
Przez najbliższe 5 minut proszę kolorować otrzymaną pustą kartkę. Naciśnij spację aby zacząć odmierzać czas,,-->--,0,1,1,1,,,,,0,10,10,53,,,,,,,,,,,,,,,,,,,,,882.9484592929948,882.9484592929948,right,0,0.3700264770304784,,,,,,20,18,K,W,2023-01-05_13h40.09.216,Flanker,2022.2.4,None,
Przez najbliższe 5 minut proszę kolorować otrzymaną pustą kartkę. Naciśnij spację aby zacząć odmierzać czas,,<<<<<,0,1,1,1,,,,,0,11,11,10,,,,,,,,,,,,,,,,,,,,,884.3385332190664,884.3385332190664,left,0,0.37817044102121145,,,,,,20,18,K,W,2023-01-05_13h40.09.216,Flanker,2022.2.4,None,
Przez najbliższe 5 minut proszę kolorować otrzymaną pustą kartkę. Naciśnij spację aby zacząć odmierzać czas,,>><>>,0,1,1,1,,,,,0,12,12,30,,,,,,,,,,,,,,,,,,,,,885.7333753020503,885.7333753020503,left,0,0.4342365739867091,,,,,,20,18,K,W,2023-01-05_13h40.09.216,Flanker,2022.2.4,None,
Przez najbliższe 5 minut proszę kolorować otrzymaną pustą kartkę. Naciśnij spację aby zacząć odmierzać czas,,<<><<,0,1,1,1,,,,,0,13,13,22,,,,,,,,,,,,,,,,,,,,,887.1824265030446,887.1824265030446,right,0,0.6501852060901001,,,,,,20,18,K,W,2023-01-05_13h40.09.216,Flanker,2022.2.4,None,
Przez najbliższe 5 minut proszę kolorować otrzymaną pustą kartkę. Naciśnij spację aby zacząć odmierzać czas,,>>>>>,0,1,1,1,,,,,0,14,14,8,,,,,,,,,,,,,,,,,,,,,888.8550719351042,888.8550719351042,right,0,0.44251205201726407,,,,,,20,18,K,W,2023-01-05_13h40.09.216,Flanker,2022.2.4,None,
Przez najbliższe 5 minut proszę kolorować otrzymaną pustą kartkę. Naciśnij spację aby zacząć odmierzać czas,,<<><<,0,1,1,1,,,,,0,15,15,28,,,,,,,,,,,,,,,,,,,,,890.3119186410913,890.3119186410913,right,0,0.680558874970302,,,,,,20,18,K,W,2023-01-05_13h40.09.216,Flanker,2022.2.4,None,
Przez najbliższe 5 minut proszę kolorować otrzymaną pustą kartkę. Naciśnij spację aby zacząć odmierzać czas,,<<<<<,0,1,1,1,,,,,0,16,16,19,,,,,,,,,,,,,,,,,,,,,892.0101724501001,892.0101724501001,left,0,0.416418706998229,,,,,,20,18,K,W,2023-01-05_13h40.09.216,Flanker,2022.2.4,None,
Przez najbliższe 5 minut proszę kolorować otrzymaną pustą kartkę. Naciśnij spację aby zacząć odmierzać czas,,<<><<,0,1,1,1,,,,,0,17,17,21,,,,,,,,,,,,,,,,,,,,,893.4399440230336,893.4399440230336,left,0,0.552590384031646,,,,,,20,18,K,W,2023-01-05_13h40.09.216,Flanker,2022.2.4,None,
Przez najbliższe 5 minut proszę kolorować otrzymaną pustą kartkę. Naciśnij spację aby zacząć odmierzać czas,,>>>>>,0,1,1,1,,,,,0,18,18,0,,,,,,,,,,,,,,,,,,,,,895.008276536013,895.008276536013,right,0,0.837096099043265,,,,,,20,18,K,W,2023-01-05_13h40.09.216,Flanker,2022.2.4,None,
Przez najbliższe 5 minut proszę kolorować otrzymaną pustą kartkę. Naciśnij spację aby zacząć odmierzać czas,,>>>>>,0,1,1,1,,,,,0,19,19,9,,,,,,,,,,,,,,,,,,,,,896.8495529080974,896.8495529080974,right,0,0.459749752888456,,,,,,20,18,K,W,2023-01-05_13h40.09.216,Flanker,2022.2.4,None,
Przez najbliższe 5 minut proszę kolorować otrzymaną pustą kartkę. Naciśnij spację aby zacząć odmierzać czas,,--<--,0,1,1,1,,,,,0,20,20,45,,,,,,,,,,,,,,,,,,,,,898.3163361210609,898.3163361210609,left,0,0.5721414000727236,,,,,,20,18,K,W,2023-01-05_13h40.09.216,Flanker,2022.2.4,None,
Przez najbliższe 5 minut proszę kolorować otrzymaną pustą kartkę. Naciśnij spację aby zacząć odmierzać czas,,<<><<,0,1,1,1,,,,,0,21,21,25,,,,,,,,,,,,,,,,,,,,,899.9081282080151,899.9081282080151,right,0,0.5973208990180865,,,,,,20,18,K,W,2023-01-05_13h40.09.216,Flanker,2022.2.4,None,
Przez najbliższe 5 minut proszę kolorować otrzymaną pustą kartkę. Naciśnij spację aby zacząć odmierzać czas,,<<><<,0,1,1,1,,,,,0,22,22,24,,,,,,,,,,,,,,,,,,,,,901.520334245055,901.520334245055,right,0,0.6228956179693341,,,,,,20,18,K,W,2023-01-05_13h40.09.216,Flanker,2022.2.4,None,
Przez najbliższe 5 minut proszę kolorować otrzymaną pustą kartkę. Naciśnij spację aby zacząć odmierzać czas,,--<--,0,1,1,1,,,,,0,23,23,48,,,,,,,,,,,,,,,,,,,,,903.1485505900346,903.1485505900346,left,0,0.4926046309992671,,,,,,20,18,K,W,2023-01-05_13h40.09.216,Flanker,2022.2.4,None,
Przez najbliższe 5 minut proszę kolorować otrzymaną pustą kartkę. Naciśnij spację aby zacząć odmierzać czas,,-->--,0,1,1,1,,,,,0,24,24,54,,,,,,,,,,,,,,,,,,,,,904.655940297991,904.655940297991,right,0,0.4462938850047067,,,,,,20,18,K,W,2023-01-05_13h40.09.216,Flanker,2022.2.4,None,
Przez najbliższe 5 minut proszę kolorować otrzymaną pustą kartkę. Naciśnij spację aby zacząć odmierzać czas,,>><>>,0,1,1,1,,,,,0,25,25,37,,,,,,,,,,,,,,,,,,,,,906.1286834970815,906.1286834970815,left,0,0.6245974709745497,,,,,,20,18,K,W,2023-01-05_13h40.09.216,Flanker,2022.2.4,None,
Przez najbliższe 5 minut proszę kolorować otrzymaną pustą kartkę. Naciśnij spację aby zacząć odmierzać czas,,-->--,0,1,1,1,,,,,0,26,26,55,,,,,,,,,,,,,,,,,,,,,907.7666023810161,907.7666023810161,right,0,0.45548385905567557,,,,,,20,18,K,W,2023-01-05_13h40.09.216,Flanker,2022.2.4,None,
Przez najbliższe 5 minut proszę kolorować otrzymaną pustą kartkę. Naciśnij spację aby zacząć odmierzać czas,,>><>>,0,1,1,1,,,,,0,27,27,34,,,,,,,,,,,,,,,,,,,,,909.2434594030492,909.2434594030492,left,0,0.6256010259967297,,,,,,20,18,K,W,2023-01-05_13h40.09.216,Flanker,2022.2.4,None,
Przez najbliższe 5 minut proszę kolorować otrzymaną pustą kartkę. Naciśnij spację aby zacząć odmierzać czas,,>>>>>,0,1,1,1,,,,,0,28,28,1,,,,,,,,,,,,,,,,,,,,,910.8819840440992,910.8819840440992,right,0,0.5510643860325217,,,,,,20,18,K,W,2023-01-05_13h40.09.216,Flanker,2022.2.4,None,
Przez najbliższe 5 minut proszę kolorować otrzymaną pustą kartkę. Naciśnij spację aby zacząć odmierzać czas,,>>>>>,0,1,1,1,,,,,0,29,29,7,,,,,,,,,,,,,,,,,,,,,912.444856589078,912.444856589078,right,0,0.6723143490962684,,,,,,20,18,K,W,2023-01-05_13h40.09.216,Flanker,2022.2.4,None,
Przez najbliższe 5 minut proszę kolorować otrzymaną pustą kartkę. Naciśnij spację aby zacząć odmierzać czas,,<<<<<,0,1,1,1,,,,,0,30,30,13,,,,,,,,,,,,,,,,,,,,,914.138110726024,914.138110726024,left,0,0.5478747629094869,,,,,,20,18,K,W,2023-01-05_13h40.09.216,Flanker,2022.2.4,None,
Przez najbliższe 5 minut proszę kolorować otrzymaną pustą kartkę. Naciśnij spację aby zacząć odmierzać czas,,<<><<,0,1,1,1,,,,,0,31,31,27,,,,,,,,,,,,,,,,,,,,,915.6982918160502,915.6982918160502,right,0,0.5817532350774854,,,,,,20,18,K,W,2023-01-05_13h40.09.216,Flanker,2022.2.4,None,
Przez najbliższe 5 minut proszę kolorować otrzymaną pustą kartkę. Naciśnij spację aby zacząć odmierzać czas,,-->--,0,1,1,1,,,,,0,32,32,59,,,,,,,,,,,,,,,,,,,,,917.2982088050339,917.2982088050339,right,0,0.4726476239738986,,,,,,20,18,K,W,2023-01-05_13h40.09.216,Flanker,2022.2.4,None,
Przez najbliższe 5 minut proszę kolorować otrzymaną pustą kartkę. Naciśnij spację aby zacząć odmierzać czas,,>>>>>,0,1,1,1,,,,,0,33,33,2,,,,,,,,,,,,,,,,,,,,,918.7908850091044,918.7908850091044,right,0,0.42406863800715655,,,,,,20,18,K,W,2023-01-05_13h40.09.216,Flanker,2022.2.4,None,
Przez najbliższe 5 minut proszę kolorować otrzymaną pustą kartkę. Naciśnij spację aby zacząć odmierzać czas,,<<><<,0,1,1,1,,,,,0,34,34,29,,,,,,,,,,,,,,,,,,,,,920.2319653230952,920.2319653230952,right,0,0.5358171761035919,,,,,,20,18,K,W,2023-01-05_13h40.09.216,Flanker,2022.2.4,None,
Przez najbliższe 5 minut proszę kolorować otrzymaną pustą kartkę. Naciśnij spację aby zacząć odmierzać czas,,-->--,0,1,1,1,,,,,0,35,35,50,,,,,,,,,,,,,,,,,,,,,921.7889336349908,921.7889336349908,right,0,0.36889708100352436,,,,,,20,18,K,W,2023-01-05_13h40.09.216,Flanker,2022.2.4,None,
Przez najbliższe 5 minut proszę kolorować otrzymaną pustą kartkę. Naciśnij spację aby zacząć odmierzać czas,,<<><<,0,1,1,1,,,,,0,36,36,26,,,,,,,,,,,,,,,,,,,,,923.1612835730193,923.1612835730193,right,0,0.5765521420398727,,,,,,20,18,K,W,2023-01-05_13h40.09.216,Flanker,2022.2.4,None,
Przez najbliższe 5 minut proszę kolorować otrzymaną pustą kartkę. Naciśnij spację aby zacząć odmierzać czas,,>>>>>,0,1,1,1,,,,,0,37,37,4,,,,,,,,,,,,,,,,,,,,,924.7581718760775,924.7581718760775,right,0,0.503831174923107,,,,,,20,18,K,W,2023-01-05_13h40.09.216,Flanker,2022.2.4,None,
Przez najbliższe 5 minut proszę kolorować otrzymaną pustą kartkę. Naciśnij spację aby zacząć odmierzać czas,,<<<<<,0,1,1,1,,,,,0,38,38,15,,,,,,,,,,,,,,,,,,,,,926.2846810159972,926.2846810159972,left,0,0.6490211869822815,,,,,,20,18,K,W,2023-01-05_13h40.09.216,Flanker,2022.2.4,None,
Przez najbliższe 5 minut proszę kolorować otrzymaną pustą kartkę. Naciśnij spację aby zacząć odmierzać czas,,-->--,0,1,1,1,,,,,0,39,39,51,,,,,,,,,,,,,,,,,,,,,927.9427852859953,927.9427852859953,right,0,0.4230320940259844,,,,,,20,18,K,W,2023-01-05_13h40.09.216,Flanker,2022.2.4,None,
Przez najbliższe 5 minut proszę kolorować otrzymaną pustą kartkę. Naciśnij spację aby zacząć odmierzać czas,,>><>>,0,1,1,1,,,,,0,40,40,31,,,,,,,,,,,,,,,,,,,,,929.3872107299976,929.3872107299976,left,0,0.6415412509813905,,,,,,20,18,K,W,2023-01-05_13h40.09.216,Flanker,2022.2.4,None,
Przez najbliższe 5 minut proszę kolorować otrzymaną pustą kartkę. Naciśnij spację aby zacząć odmierzać czas,,--<--,0,1,1,1,,,,,0,41,41,41,,,,,,,,,,,,,,,,,,,,,931.0427963050315,931.0427963050315,left,0,0.48188608197961,,,,,,20,18,K,W,2023-01-05_13h40.09.216,Flanker,2022.2.4,None,
Przez najbliższe 5 minut proszę kolorować otrzymaną pustą kartkę. Naciśnij spację aby zacząć odmierzać czas,,<<<<<,0,1,1,1,,,,,0,42,42,16,,,,,,,,,,,,,,,,,,,,,932.5394268730888,932.5394268730888,left,0,0.5123395880218595,,,,,,20,18,K,W,2023-01-05_13h40.09.216,Flanker,2022.2.4,None,
Przez najbliższe 5 minut proszę kolorować otrzymaną pustą kartkę. Naciśnij spację aby zacząć odmierzać czas,,>><>>,0,1,1,1,,,,,0,43,43,32,,,,,,,,,,,,,,,,,,,,,934.065515923081,934.065515923081,left,0,1.3430954579962417,,,,,,20,18,K,W,2023-01-05_13h40.09.216,Flanker,2022.2.4,None,
Przez najbliższe 5 minut proszę kolorować otrzymaną pustą kartkę. Naciśnij spację aby zacząć odmierzać czas,,<<<<<,0,1,1,1,,,,,0,44,44,14,,,,,,,,,,,,,,,,,,,,,936.4214137750678,936.4214137750678,left,0,0.390167088015005,,,,,,20,18,K,W,2023-01-05_13h40.09.216,Flanker,2022.2.4,None,
Przez najbliższe 5 minut proszę kolorować otrzymaną pustą kartkę. Naciśnij spację aby zacząć odmierzać czas,,--<--,0,1,1,1,,,,,0,45,45,44,,,,,,,,,,,,,,,,,,,,,937.821490706061,937.821490706061,left,0,0.36194317997433245,,,,,,20,18,K,W,2023-01-05_13h40.09.216,Flanker,2022.2.4,None,
Przez najbliższe 5 minut proszę kolorować otrzymaną pustą kartkę. Naciśnij spację aby zacząć odmierzać czas,,--<--,0,1,1,1,,,,,0,46,46,40,,,,,,,,,,,,,,,,,,,,,939.2050291410415,939.2050291410415,left,0,0.3894181710202247,,,,,,20,18,K,W,2023-01-05_13h40.09.216,Flanker,2022.2.4,None,
Przez najbliższe 5 minut proszę kolorować otrzymaną pustą kartkę. Naciśnij spację aby zacząć odmierzać czas,,<<<<<,0,1,1,1,,,,,0,47,47,11,,,,,,,,,,,,,,,,,,,,,940.6193422561046,940.6193422561046,left,0,0.38613819796591997,,,,,,20,18,K,W,2023-01-05_13h40.09.216,Flanker,2022.2.4,None,
Przez najbliższe 5 minut proszę kolorować otrzymaną pustą kartkę. Naciśnij spację aby zacząć odmierzać czas,,>>>>> ,0,1,1,1,,,,,0,48,48,5,,,,,,,,,,,,,,,,,,,,,942.0209716040408,942.0209716040408,right,0,0.49754172994289547,,,,,,20,18,K,W,2023-01-05_13h40.09.216,Flanker,2022.2.4,None,
Przez najbliższe 5 minut proszę kolorować otrzymaną pustą kartkę. Naciśnij spację aby zacząć odmierzać czas,,>>>>>,0,1,1,1,,,,,0,49,49,6,,,,,,,,,,,,,,,,,,,,,943.5389197610784,943.5389197610784,right,0,0.37941435200627893,,,,,,20,18,K,W,2023-01-05_13h40.09.216,Flanker,2022.2.4,None,
Przez najbliższe 5 minut proszę kolorować otrzymaną pustą kartkę. Naciśnij spację aby zacząć odmierzać czas,,<<<<<,0,1,1,1,,,,,0,50,50,12,,,,,,,,,,,,,,,,,,,,,944.9338167350506,944.9338167350506,left,0,0.5255412210244685,,,,,,20,18,K,W,2023-01-05_13h40.09.216,Flanker,2022.2.4,None,
Przez najbliższe 5 minut proszę kolorować otrzymaną pustą kartkę. Naciśnij spację aby zacząć odmierzać czas,,<<><<,0,1,1,1,,,,,0,51,51,23,,,,,,,,,,,,,,,,,,,,,946.4710863400251,946.4710863400251,right,0,0.45430580899119377,,,,,,20,18,K,W,2023-01-05_13h40.09.216,Flanker,2022.2.4,None,
Przez najbliższe 5 minut proszę kolorować otrzymaną pustą kartkę. Naciśnij spację aby zacząć odmierzać czas,,--<--,0,1,1,1,,,,,0,52,52,43,,,,,,,,,,,,,,,,,,,,,947.938546571997,947.938546571997,left,0,0.3148753138957545,,,,,,20,18,K,W,2023-01-05_13h40.09.216,Flanker,2022.2.4,None,
Przez najbliższe 5 minut proszę kolorować otrzymaną pustą kartkę. Naciśnij spację aby zacząć odmierzać czas,,>><>>,0,1,1,1,,,,,0,53,53,36,,,,,,,,,,,,,,,,,,,,,949.2660123300739,949.2660123300739,right,0,0.30228689091745764,,,,,,20,18,K,W,2023-01-05_13h40.09.216,Flanker,2022.2.4,None,
Przez najbliższe 5 minut proszę kolorować otrzymaną pustą kartkę. Naciśnij spację aby zacząć odmierzać czas,,>><>>,0,1,1,1,,,,,0,54,54,33,,,,,,,,,,,,,,,,,,,,,950.5878702410264,950.5878702410264,left,0,0.5565185450250283,,,,,,20,18,K,W,2023-01-05_13h40.09.216,Flanker,2022.2.4,None,
Przez najbliższe 5 minut proszę kolorować otrzymaną pustą kartkę. Naciśnij spację aby zacząć odmierzać czas,,>><>>,0,1,1,1,,,,,0,55,55,39,,,,,,,,,,,,,,,,,,,,,952.1608645380475,952.1608645380475,left,0,0.5973222949542105,,,,,,20,18,K,W,2023-01-05_13h40.09.216,Flanker,2022.2.4,None,
Przez najbliższe 5 minut proszę kolorować otrzymaną pustą kartkę. Naciśnij spację aby zacząć odmierzać czas,,--<--,0,1,1,1,,,,,0,56,56,49,,,,,,,,,,,,,,,,,,,,,953.761631836067,953.761631836067,left,0,0.4386246729409322,,,,,,20,18,K,W,2023-01-05_13h40.09.216,Flanker,2022.2.4,None,
Przez najbliższe 5 minut proszę kolorować otrzymaną pustą kartkę. Naciśnij spację aby zacząć odmierzać czas,,--<--,0,1,1,1,,,,,0,57,57,46,,,,,,,,,,,,,,,,,,,,,955.2225937460316,955.2225937460316,left,0,0.3456301389960572,,,,,,20,18,K,W,2023-01-05_13h40.09.216,Flanker,2022.2.4,None,
Przez najbliższe 5 minut proszę kolorować otrzymaną pustą kartkę. Naciśnij spację aby zacząć odmierzać czas,,-->--,0,1,1,1,,,,,0,58,58,57,,,,,,,,,,,,,,,,,,,,,956.5912205830682,956.5912205830682,right,0,0.4599635050399229,,,,,,20,18,K,W,2023-01-05_13h40.09.216,Flanker,2022.2.4,None,
Przez najbliższe 5 minut proszę kolorować otrzymaną pustą kartkę. Naciśnij spację aby zacząć odmierzać czas,,<<<<<,0,1,1,1,,,,,0,59,59,18,,,,,,,,,,,,,,,,,,,,,958.0598619630327,958.0598619630327,left,0,0.4512604749761522,,,,,,20,18,K,W,2023-01-05_13h40.09.216,Flanker,2022.2.4,None,
Przez najbliższe 5 minut proszę kolorować otrzymaną pustą kartkę. Naciśnij spację aby zacząć odmierzać czas,,,0,1,1,1,,,,,,,,,,,,,,,,,,,,,,,,,,,,,,,,,,,,,,,20,18,K,W,2023-01-05_13h40.09.216,Flanker,2022.2.4,None,
,,,,,,,,,,,,,,,,,,,,,,,,,,,,,,,,,,,,,,,,,959.5275413820054,959.5275413820054,space,3.607172140968032,20,18,K,W,2023-01-05_13h40.09.216,Flanker,2022.2.4,None,
