kolorowanka,Example,Stimuli,proby.thisRepN,proby.thisTrialN,proby.thisN,proby.thisIndex,zapoznanie.thisRepN,zapoznanie.thisTrialN,zapoznanie.thisN,zapoznanie.thisIndex,Warunki.thisRepN,Warunki.thisTrialN,Warunki.thisN,Warunki.thisIndex,Intro.started,Intro_resp.started,Intro_resp.keys,Intro_resp.rt,Kolorowanie1.started,starttt.started,starttt.keys,starttt.rt,koloruj.started,Instruction.started,key_resp.started,key_resp.keys,key_resp.rt,Wyjasnienie.started,text.started,odp_przyk.started,odp_przyk.keys,odp_przyk.corr,odp_przyk.rt,zapo.started,Zadanie.started,Odp.started,Odp.keys,Odp.corr,Odp.rt,zapo.stopped,thanks.started,KONIEC.started,KONIEC.keys,KONIEC.rt,participant,Wiek (w latach),Płeć (K/M),Entropia,date,expName,psychopyVersion,frameRate,
,,,,,,,,,,,,,,,25.927799639990600,27.904059513937700,space,13.24908445798790,,,,,,,,,,,,,,,,,,,,,,,,,,,25,23,K,W,2023-01-05_15h05.11.204,Flanker,2022.2.4,None,
Przez najbliższe 5 minut proszę kolorować otrzymaną kolorwankę z mandalą. Naciśnij spację aby zacząć odmierzać czas,<<<<<,,0,0,0,0,0,0,0,0,,,,,,,,,41.20541598997080,42.16354506998320,space,7.821783947991210,50.01504649198610,350.0091449950120,352.00183288101100,space,34.34782520600130,386.38117387192300,395.3590334149780,395.3590334149780,left,0,1.779212274006570,,,,,,,,,,,,25,23,K,W,2023-01-05_15h05.11.204,Flanker,2022.2.4,None,
Przez najbliższe 5 minut proszę kolorować otrzymaną kolorwankę z mandalą. Naciśnij spację aby zacząć odmierzać czas,<<><<,,0,0,0,0,0,1,1,2,,,,,,,,,,,,,,,,,,,398.14063342590800,398.14063342590800,right,0,1.3444435610435900,,,,,,,,,,,,25,23,K,W,2023-01-05_15h05.11.204,Flanker,2022.2.4,None,
Przez najbliższe 5 minut proszę kolorować otrzymaną kolorwankę z mandalą. Naciśnij spację aby zacząć odmierzać czas,>><>>,,0,0,0,0,0,2,2,3,,,,,,,,,,,,,,,,,,,400.4922505239960,400.4922505239960,left,0,1.031859935959800,,,,,,,,,,,,25,23,K,W,2023-01-05_15h05.11.204,Flanker,2022.2.4,None,
Przez najbliższe 5 minut proszę kolorować otrzymaną kolorwankę z mandalą. Naciśnij spację aby zacząć odmierzać czas,--<--,,0,0,0,0,0,3,3,4,,,,,,,,,,,,,,,,,,,402.5518656480130,402.5518656480130,left,0,1.0442295159446100,,,,,,,,,,,,25,23,K,W,2023-01-05_15h05.11.204,Flanker,2022.2.4,None,
Przez najbliższe 5 minut proszę kolorować otrzymaną kolorwankę z mandalą. Naciśnij spację aby zacząć odmierzać czas,-->--,,0,0,0,0,0,4,4,5,,,,,,,,,,,,,,,,,,,404.6086238839200,404.6086238839200,right,0,1.0063345519593000,,,,,,,,,,,,25,23,K,W,2023-01-05_15h05.11.204,Flanker,2022.2.4,None,
Przez najbliższe 5 minut proszę kolorować otrzymaną kolorwankę z mandalą. Naciśnij spację aby zacząć odmierzać czas,>>>>>,,0,0,0,0,0,5,5,1,,,,,,,,,,,,,,,,,,,406.6216608280080,406.6216608280080,right,0,1.0863479200052100,,,,,,,,,,,,25,23,K,W,2023-01-05_15h05.11.204,Flanker,2022.2.4,None,
Przez najbliższe 5 minut proszę kolorować otrzymaną kolorwankę z mandalą. Naciśnij spację aby zacząć odmierzać czas,,<<><<,0,0,0,0,,,,,0,0,0,22,,,,,,,,,,,,,,,,,,,,408.7100460989170,416.71730399201600,416.71730399201600,right,0,1.0485789669910400,415.73053284396900,,,,,25,23,K,W,2023-01-05_15h05.11.204,Flanker,2022.2.4,None,
Przez najbliższe 5 minut proszę kolorować otrzymaną kolorwankę z mandalą. Naciśnij spację aby zacząć odmierzać czas,,<<><<,0,0,0,0,,,,,0,1,1,27,,,,,,,,,,,,,,,,,,,,,418.76515453099300,418.76515453099300,right,0,0.959426780929789,,,,,,25,23,K,W,2023-01-05_15h05.11.204,Flanker,2022.2.4,None,
Przez najbliższe 5 minut proszę kolorować otrzymaną kolorwankę z mandalą. Naciśnij spację aby zacząć odmierzać czas,,>>>>>,0,0,0,0,,,,,0,2,2,4,,,,,,,,,,,,,,,,,,,,,420.74042269191700,420.74042269191700,right,0,0.9101754679577430,,,,,,25,23,K,W,2023-01-05_15h05.11.204,Flanker,2022.2.4,None,
Przez najbliższe 5 minut proszę kolorować otrzymaną kolorwankę z mandalą. Naciśnij spację aby zacząć odmierzać czas,,<<<<<,0,0,0,0,,,,,0,3,3,15,,,,,,,,,,,,,,,,,,,,,422.6746066629420,422.6746066629420,left,0,1.0639210279332500,,,,,,25,23,K,W,2023-01-05_15h05.11.204,Flanker,2022.2.4,None,
Przez najbliższe 5 minut proszę kolorować otrzymaną kolorwankę z mandalą. Naciśnij spację aby zacząć odmierzać czas,,<<<<<,0,0,0,0,,,,,0,4,4,14,,,,,,,,,,,,,,,,,,,,,424.7448018930150,424.7448018930150,left,0,0.9767112240660940,,,,,,25,23,K,W,2023-01-05_15h05.11.204,Flanker,2022.2.4,None,
Przez najbliższe 5 minut proszę kolorować otrzymaną kolorwankę z mandalą. Naciśnij spację aby zacząć odmierzać czas,,--<--,0,0,0,0,,,,,0,5,5,46,,,,,,,,,,,,,,,,,,,,,426.72869704896600,426.72869704896600,left,0,0.9017211720347400,,,,,,25,23,K,W,2023-01-05_15h05.11.204,Flanker,2022.2.4,None,
Przez najbliższe 5 minut proszę kolorować otrzymaną kolorwankę z mandalą. Naciśnij spację aby zacząć odmierzać czas,,<<><<,0,0,0,0,,,,,0,6,6,29,,,,,,,,,,,,,,,,,,,,,428.64113922196000,428.64113922196000,right,0,0.7442117230966690,,,,,,25,23,K,W,2023-01-05_15h05.11.204,Flanker,2022.2.4,None,
Przez najbliższe 5 minut proszę kolorować otrzymaną kolorwankę z mandalą. Naciśnij spację aby zacząć odmierzać czas,,--<--,0,0,0,0,,,,,0,7,7,43,,,,,,,,,,,,,,,,,,,,,430.4015513549090,430.4015513549090,left,0,0.5347798069706190,,,,,,25,23,K,W,2023-01-05_15h05.11.204,Flanker,2022.2.4,None,
Przez najbliższe 5 minut proszę kolorować otrzymaną kolorwankę z mandalą. Naciśnij spację aby zacząć odmierzać czas,,<<><<,0,0,0,0,,,,,0,8,8,25,,,,,,,,,,,,,,,,,,,,,431.9460084219460,431.9460084219460,right,0,1.0083389739738800,,,,,,25,23,K,W,2023-01-05_15h05.11.204,Flanker,2022.2.4,None,
Przez najbliższe 5 minut proszę kolorować otrzymaną kolorwankę z mandalą. Naciśnij spację aby zacząć odmierzać czas,,<<><<,0,0,0,0,,,,,0,9,9,20,,,,,,,,,,,,,,,,,,,,,433.96832328499300,433.96832328499300,right,0,0.9998722819145770,,,,,,25,23,K,W,2023-01-05_15h05.11.204,Flanker,2022.2.4,None,
Przez najbliższe 5 minut proszę kolorować otrzymaną kolorwankę z mandalą. Naciśnij spację aby zacząć odmierzać czas,,-->--,0,0,0,0,,,,,0,10,10,51,,,,,,,,,,,,,,,,,,,,,435.9796359229370,435.9796359229370,right,0,0.8705838930327450,,,,,,25,23,K,W,2023-01-05_15h05.11.204,Flanker,2022.2.4,None,
Przez najbliższe 5 minut proszę kolorować otrzymaną kolorwankę z mandalą. Naciśnij spację aby zacząć odmierzać czas,,-->--,0,0,0,0,,,,,0,11,11,56,,,,,,,,,,,,,,,,,,,,,437.85429347492800,437.85429347492800,right,0,0.8239787500351670,,,,,,25,23,K,W,2023-01-05_15h05.11.204,Flanker,2022.2.4,None,
Przez najbliższe 5 minut proszę kolorować otrzymaną kolorwankę z mandalą. Naciśnij spację aby zacząć odmierzać czas,,>><>>,0,0,0,0,,,,,0,12,12,32,,,,,,,,,,,,,,,,,,,,,439.68869422201500,439.68869422201500,left,0,0.6704271839698780,,,,,,25,23,K,W,2023-01-05_15h05.11.204,Flanker,2022.2.4,None,
Przez najbliższe 5 minut proszę kolorować otrzymaną kolorwankę z mandalą. Naciśnij spację aby zacząć odmierzać czas,,-->--,0,0,0,0,,,,,0,13,13,59,,,,,,,,,,,,,,,,,,,,,441.38816591596700,441.38816591596700,right,0,0.4759752620011570,,,,,,25,23,K,W,2023-01-05_15h05.11.204,Flanker,2022.2.4,None,
Przez najbliższe 5 minut proszę kolorować otrzymaną kolorwankę z mandalą. Naciśnij spację aby zacząć odmierzać czas,,>><>>,0,0,0,0,,,,,0,14,14,35,,,,,,,,,,,,,,,,,,,,,442.87773104501000,442.87773104501000,left,0,0.8904294690582900,,,,,,25,23,K,W,2023-01-05_15h05.11.204,Flanker,2022.2.4,None,
Przez najbliższe 5 minut proszę kolorować otrzymaną kolorwankę z mandalą. Naciśnij spację aby zacząć odmierzać czas,,>><>>,0,0,0,0,,,,,0,15,15,33,,,,,,,,,,,,,,,,,,,,,444.7751607869290,444.7751607869290,left,0,0.724860871094279,,,,,,25,23,K,W,2023-01-05_15h05.11.204,Flanker,2022.2.4,None,
Przez najbliższe 5 minut proszę kolorować otrzymaną kolorwankę z mandalą. Naciśnij spację aby zacząć odmierzać czas,,--<--,0,0,0,0,,,,,0,16,16,41,,,,,,,,,,,,,,,,,,,,,446.50129745691100,446.50129745691100,left,0,0.5468551340745760,,,,,,25,23,K,W,2023-01-05_15h05.11.204,Flanker,2022.2.4,None,
Przez najbliższe 5 minut proszę kolorować otrzymaną kolorwankę z mandalą. Naciśnij spację aby zacząć odmierzać czas,,>>>>> ,0,0,0,0,,,,,0,17,17,5,,,,,,,,,,,,,,,,,,,,,448.06357286695900,448.06357286695900,right,0,0.6744705879827960,,,,,,25,23,K,W,2023-01-05_15h05.11.204,Flanker,2022.2.4,None,
Przez najbliższe 5 minut proszę kolorować otrzymaną kolorwankę z mandalą. Naciśnij spację aby zacząć odmierzać czas,,>>>>>,0,0,0,0,,,,,0,18,18,0,,,,,,,,,,,,,,,,,,,,,449.7449023989030,449.7449023989030,right,0,0.6260566329583530,,,,,,25,23,K,W,2023-01-05_15h05.11.204,Flanker,2022.2.4,None,
Przez najbliższe 5 minut proszę kolorować otrzymaną kolorwankę z mandalą. Naciśnij spację aby zacząć odmierzać czas,,-->--,0,0,0,0,,,,,0,19,19,50,,,,,,,,,,,,,,,,,,,,,451.3793053769040,451.3793053769040,right,0,0.4346676419954750,,,,,,25,23,K,W,2023-01-05_15h05.11.204,Flanker,2022.2.4,None,
Przez najbliższe 5 minut proszę kolorować otrzymaną kolorwankę z mandalą. Naciśnij spację aby zacząć odmierzać czas,,>><>>,0,0,0,0,,,,,0,20,20,37,,,,,,,,,,,,,,,,,,,,,452.8385322369870,452.8385322369870,left,0,0.6374794349540030,,,,,,25,23,K,W,2023-01-05_15h05.11.204,Flanker,2022.2.4,None,
Przez najbliższe 5 minut proszę kolorować otrzymaną kolorwankę z mandalą. Naciśnij spację aby zacząć odmierzać czas,,>><>>,0,0,0,0,,,,,0,21,21,34,,,,,,,,,,,,,,,,,,,,,454.49456827994400,454.49456827994400,left,0,0.5991332459962000,,,,,,25,23,K,W,2023-01-05_15h05.11.204,Flanker,2022.2.4,None,
Przez najbliższe 5 minut proszę kolorować otrzymaną kolorwankę z mandalą. Naciśnij spację aby zacząć odmierzać czas,,>>>>>,0,0,0,0,,,,,0,22,22,7,,,,,,,,,,,,,,,,,,,,,456.1043008149140,456.1043008149140,right,0,0.5906152779934930,,,,,,25,23,K,W,2023-01-05_15h05.11.204,Flanker,2022.2.4,None,
Przez najbliższe 5 minut proszę kolorować otrzymaną kolorwankę z mandalą. Naciśnij spację aby zacząć odmierzać czas,,<<<<<,0,0,0,0,,,,,0,23,23,19,,,,,,,,,,,,,,,,,,,,,457.70525238395200,457.70525238395200,left,0,0.5425960309803490,,,,,,25,23,K,W,2023-01-05_15h05.11.204,Flanker,2022.2.4,None,
Przez najbliższe 5 minut proszę kolorować otrzymaną kolorwankę z mandalą. Naciśnij spację aby zacząć odmierzać czas,,<<<<<,0,0,0,0,,,,,0,24,24,17,,,,,,,,,,,,,,,,,,,,,459.25116921099800,459.25116921099800,left,0,0.5136345289647580,,,,,,25,23,K,W,2023-01-05_15h05.11.204,Flanker,2022.2.4,None,
Przez najbliższe 5 minut proszę kolorować otrzymaną kolorwankę z mandalą. Naciśnij spację aby zacząć odmierzać czas,,<<><<,0,0,0,0,,,,,0,25,25,24,,,,,,,,,,,,,,,,,,,,,460.7802346369720,460.7802346369720,right,0,0.7625334759941330,,,,,,25,23,K,W,2023-01-05_15h05.11.204,Flanker,2022.2.4,None,
Przez najbliższe 5 minut proszę kolorować otrzymaną kolorwankę z mandalą. Naciśnij spację aby zacząć odmierzać czas,,--<--,0,0,0,0,,,,,0,26,26,44,,,,,,,,,,,,,,,,,,,,,462.55636230297400,462.55636230297400,left,0,0.5263520058942960,,,,,,25,23,K,W,2023-01-05_15h05.11.204,Flanker,2022.2.4,None,
Przez najbliższe 5 minut proszę kolorować otrzymaną kolorwankę z mandalą. Naciśnij spację aby zacząć odmierzać czas,,<<<<<,0,0,0,0,,,,,0,27,27,11,,,,,,,,,,,,,,,,,,,,,464.08575022395200,464.08575022395200,left,0,0.5352144819917160,,,,,,25,23,K,W,2023-01-05_15h05.11.204,Flanker,2022.2.4,None,
Przez najbliższe 5 minut proszę kolorować otrzymaną kolorwankę z mandalą. Naciśnij spację aby zacząć odmierzać czas,,>>>>>,0,0,0,0,,,,,0,28,28,2,,,,,,,,,,,,,,,,,,,,,465.6236040609660,465.6236040609660,right,0,0.5209908990655090,,,,,,25,23,K,W,2023-01-05_15h05.11.204,Flanker,2022.2.4,None,
Przez najbliższe 5 minut proszę kolorować otrzymaną kolorwankę z mandalą. Naciśnij spację aby zacząć odmierzać czas,,>><>>,0,0,0,0,,,,,0,29,29,36,,,,,,,,,,,,,,,,,,,,,467.1615969489790,467.1615969489790,left,0,0.6560673461062830,,,,,,25,23,K,W,2023-01-05_15h05.11.204,Flanker,2022.2.4,None,
Przez najbliższe 5 minut proszę kolorować otrzymaną kolorwankę z mandalą. Naciśnij spację aby zacząć odmierzać czas,,<<<<<,0,0,0,0,,,,,0,30,30,10,,,,,,,,,,,,,,,,,,,,,468.83715300192100,468.83715300192100,left,0,0.5415167979663240,,,,,,25,23,K,W,2023-01-05_15h05.11.204,Flanker,2022.2.4,None,
Przez najbliższe 5 minut proszę kolorować otrzymaną kolorwankę z mandalą. Naciśnij spację aby zacząć odmierzać czas,,<<><<,0,0,0,0,,,,,0,31,31,21,,,,,,,,,,,,,,,,,,,,,470.38940003491000,470.38940003491000,right,0,0.6532132369466130,,,,,,25,23,K,W,2023-01-05_15h05.11.204,Flanker,2022.2.4,None,
Przez najbliższe 5 minut proszę kolorować otrzymaną kolorwankę z mandalą. Naciśnij spację aby zacząć odmierzać czas,,>>>>>,0,0,0,0,,,,,0,32,32,8,,,,,,,,,,,,,,,,,,,,,472.05090775794800,472.05090775794800,right,0,0.614615565049462,,,,,,25,23,K,W,2023-01-05_15h05.11.204,Flanker,2022.2.4,None,
Przez najbliższe 5 minut proszę kolorować otrzymaną kolorwankę z mandalą. Naciśnij spację aby zacząć odmierzać czas,,<<<<<,0,0,0,0,,,,,0,33,33,18,,,,,,,,,,,,,,,,,,,,,473.67988879897200,473.67988879897200,left,0,0.5364894300000740,,,,,,25,23,K,W,2023-01-05_15h05.11.204,Flanker,2022.2.4,None,
Przez najbliższe 5 minut proszę kolorować otrzymaną kolorwankę z mandalą. Naciśnij spację aby zacząć odmierzać czas,,--<--,0,0,0,0,,,,,0,34,34,45,,,,,,,,,,,,,,,,,,,,,475.22787214792300,475.22787214792300,left,0,0.46054387802723800,,,,,,25,23,K,W,2023-01-05_15h05.11.204,Flanker,2022.2.4,None,
Przez najbliższe 5 minut proszę kolorować otrzymaną kolorwankę z mandalą. Naciśnij spację aby zacząć odmierzać czas,,<<><<,0,0,0,0,,,,,0,35,35,28,,,,,,,,,,,,,,,,,,,,,476.70087120798400,476.70087120798400,right,0,0.7476553440792490,,,,,,25,23,K,W,2023-01-05_15h05.11.204,Flanker,2022.2.4,None,
Przez najbliższe 5 minut proszę kolorować otrzymaną kolorwankę z mandalą. Naciśnij spację aby zacząć odmierzać czas,,<<<<<,0,0,0,0,,,,,0,36,36,13,,,,,,,,,,,,,,,,,,,,,478.4676451649280,478.4676451649280,left,0,0.9198225969448690,,,,,,25,23,K,W,2023-01-05_15h05.11.204,Flanker,2022.2.4,None,
Przez najbliższe 5 minut proszę kolorować otrzymaną kolorwankę z mandalą. Naciśnij spację aby zacząć odmierzać czas,,<<<<<,0,0,0,0,,,,,0,37,37,16,,,,,,,,,,,,,,,,,,,,,480.394655759912,480.394655759912,left,0,0.554629378952086,,,,,,25,23,K,W,2023-01-05_15h05.11.204,Flanker,2022.2.4,None,
Przez najbliższe 5 minut proszę kolorować otrzymaną kolorwankę z mandalą. Naciśnij spację aby zacząć odmierzać czas,,>>>>>,0,0,0,0,,,,,0,38,38,6,,,,,,,,,,,,,,,,,,,,,481.9588908610170,481.9588908610170,right,0,0.48039158002939100,,,,,,25,23,K,W,2023-01-05_15h05.11.204,Flanker,2022.2.4,None,
Przez najbliższe 5 minut proszę kolorować otrzymaną kolorwankę z mandalą. Naciśnij spację aby zacząć odmierzać czas,,<<><<,0,0,0,0,,,,,0,39,39,23,,,,,,,,,,,,,,,,,,,,,483.45135201793200,483.45135201793200,right,0,0.49096307810396000,,,,,,25,23,K,W,2023-01-05_15h05.11.204,Flanker,2022.2.4,None,
Przez najbliższe 5 minut proszę kolorować otrzymaną kolorwankę z mandalą. Naciśnij spację aby zacząć odmierzać czas,,--<--,0,0,0,0,,,,,0,40,40,42,,,,,,,,,,,,,,,,,,,,,484.96987360692600,484.96987360692600,left,0,0.5503738829866050,,,,,,25,23,K,W,2023-01-05_15h05.11.204,Flanker,2022.2.4,None,
Przez najbliższe 5 minut proszę kolorować otrzymaną kolorwankę z mandalą. Naciśnij spację aby zacząć odmierzać czas,,--<--,0,0,0,0,,,,,0,41,41,48,,,,,,,,,,,,,,,,,,,,,486.5193818239500,486.5193818239500,left,0,0.40979750198312100,,,,,,25,23,K,W,2023-01-05_15h05.11.204,Flanker,2022.2.4,None,
Przez najbliższe 5 minut proszę kolorować otrzymaną kolorwankę z mandalą. Naciśnij spację aby zacząć odmierzać czas,,-->--,0,0,0,0,,,,,0,42,42,57,,,,,,,,,,,,,,,,,,,,,487.9396038639830,487.9396038639830,right,0,0.4845247589983050,,,,,,25,23,K,W,2023-01-05_15h05.11.204,Flanker,2022.2.4,None,
Przez najbliższe 5 minut proszę kolorować otrzymaną kolorwankę z mandalą. Naciśnij spację aby zacząć odmierzać czas,,-->--,0,0,0,0,,,,,0,43,43,58,,,,,,,,,,,,,,,,,,,,,489.4341312679460,489.4341312679460,right,0,0.5789908720180390,,,,,,25,23,K,W,2023-01-05_15h05.11.204,Flanker,2022.2.4,None,
Przez najbliższe 5 minut proszę kolorować otrzymaną kolorwankę z mandalą. Naciśnij spację aby zacząć odmierzać czas,,>><>>,0,0,0,0,,,,,0,44,44,39,,,,,,,,,,,,,,,,,,,,,491.02142514591100,491.02142514591100,left,0,0.9076862139627340,,,,,,25,23,K,W,2023-01-05_15h05.11.204,Flanker,2022.2.4,None,
Przez najbliższe 5 minut proszę kolorować otrzymaną kolorwankę z mandalą. Naciśnij spację aby zacząć odmierzać czas,,>><>>,0,0,0,0,,,,,0,45,45,38,,,,,,,,,,,,,,,,,,,,,492.9421062299520,492.9421062299520,left,0,0.5778920189477500,,,,,,25,23,K,W,2023-01-05_15h05.11.204,Flanker,2022.2.4,None,
Przez najbliższe 5 minut proszę kolorować otrzymaną kolorwankę z mandalą. Naciśnij spację aby zacząć odmierzać czas,,--<--,0,0,0,0,,,,,0,46,46,47,,,,,,,,,,,,,,,,,,,,,494.5298612359910,494.5298612359910,left,0,0.5213484299601990,,,,,,25,23,K,W,2023-01-05_15h05.11.204,Flanker,2022.2.4,None,
Przez najbliższe 5 minut proszę kolorować otrzymaną kolorwankę z mandalą. Naciśnij spację aby zacząć odmierzać czas,,<<<<<,0,0,0,0,,,,,0,47,47,12,,,,,,,,,,,,,,,,,,,,,496.0562529959720,496.0562529959720,left,0,0.6016848400468010,,,,,,25,23,K,W,2023-01-05_15h05.11.204,Flanker,2022.2.4,None,
Przez najbliższe 5 minut proszę kolorować otrzymaną kolorwankę z mandalą. Naciśnij spację aby zacząć odmierzać czas,,>>>>>,0,0,0,0,,,,,0,48,48,9,,,,,,,,,,,,,,,,,,,,,497.6579427960100,497.6579427960100,right,0,0.7162171290256080,,,,,,25,23,K,W,2023-01-05_15h05.11.204,Flanker,2022.2.4,None,
Przez najbliższe 5 minut proszę kolorować otrzymaną kolorwankę z mandalą. Naciśnij spację aby zacząć odmierzać czas,,--<--,0,0,0,0,,,,,0,49,49,49,,,,,,,,,,,,,,,,,,,,,499.37860148598000,499.37860148598000,left,0,0.6825041439151390,,,,,,25,23,K,W,2023-01-05_15h05.11.204,Flanker,2022.2.4,None,
Przez najbliższe 5 minut proszę kolorować otrzymaną kolorwankę z mandalą. Naciśnij spację aby zacząć odmierzać czas,,-->--,0,0,0,0,,,,,0,50,50,54,,,,,,,,,,,,,,,,,,,,,501.08252935798400,501.08252935798400,right,0,0.7245069399941710,,,,,,25,23,K,W,2023-01-05_15h05.11.204,Flanker,2022.2.4,None,
Przez najbliższe 5 minut proszę kolorować otrzymaną kolorwankę z mandalą. Naciśnij spację aby zacząć odmierzać czas,,>><>>,0,0,0,0,,,,,0,51,51,31,,,,,,,,,,,,,,,,,,,,,502.8226773249920,502.8226773249920,left,0,0.6072979989694430,,,,,,25,23,K,W,2023-01-05_15h05.11.204,Flanker,2022.2.4,None,
Przez najbliższe 5 minut proszę kolorować otrzymaną kolorwankę z mandalą. Naciśnij spację aby zacząć odmierzać czas,,>><>>,0,0,0,0,,,,,0,52,52,30,,,,,,,,,,,,,,,,,,,,,504.4345070569540,504.4345070569540,left,0,0.6303866149391980,,,,,,25,23,K,W,2023-01-05_15h05.11.204,Flanker,2022.2.4,None,
Przez najbliższe 5 minut proszę kolorować otrzymaną kolorwankę z mandalą. Naciśnij spację aby zacząć odmierzać czas,,-->--,0,0,0,0,,,,,0,53,53,52,,,,,,,,,,,,,,,,,,,,,506.0725069330070,506.0725069330070,right,0,0.6331697809509930,,,,,,25,23,K,W,2023-01-05_15h05.11.204,Flanker,2022.2.4,None,
Przez najbliższe 5 minut proszę kolorować otrzymaną kolorwankę z mandalą. Naciśnij spację aby zacząć odmierzać czas,,>>>>>,0,0,0,0,,,,,0,54,54,3,,,,,,,,,,,,,,,,,,,,,507.7187216329620,507.7187216329620,right,0,0.6940228089224550,,,,,,25,23,K,W,2023-01-05_15h05.11.204,Flanker,2022.2.4,None,
Przez najbliższe 5 minut proszę kolorować otrzymaną kolorwankę z mandalą. Naciśnij spację aby zacząć odmierzać czas,,-->--,0,0,0,0,,,,,0,55,55,53,,,,,,,,,,,,,,,,,,,,,509.43392849492400,509.43392849492400,right,0,0.6867538809310650,,,,,,25,23,K,W,2023-01-05_15h05.11.204,Flanker,2022.2.4,None,
Przez najbliższe 5 minut proszę kolorować otrzymaną kolorwankę z mandalą. Naciśnij spację aby zacząć odmierzać czas,,<<><<,0,0,0,0,,,,,0,56,56,26,,,,,,,,,,,,,,,,,,,,,511.1225174389550,511.1225174389550,right,0,0.7370723380008710,,,,,,25,23,K,W,2023-01-05_15h05.11.204,Flanker,2022.2.4,None,
Przez najbliższe 5 minut proszę kolorować otrzymaną kolorwankę z mandalą. Naciśnij spację aby zacząć odmierzać czas,,--<--,0,0,0,0,,,,,0,57,57,40,,,,,,,,,,,,,,,,,,,,,512.8677185329140,512.8677185329140,left,0,0.6229469650425020,,,,,,25,23,K,W,2023-01-05_15h05.11.204,Flanker,2022.2.4,None,
Przez najbliższe 5 minut proszę kolorować otrzymaną kolorwankę z mandalą. Naciśnij spację aby zacząć odmierzać czas,,-->--,0,0,0,0,,,,,0,58,58,55,,,,,,,,,,,,,,,,,,,,,514.5070352499610,514.5070352499610,right,0,0.5845532650128010,,,,,,25,23,K,W,2023-01-05_15h05.11.204,Flanker,2022.2.4,None,
Przez najbliższe 5 minut proszę kolorować otrzymaną kolorwankę z mandalą. Naciśnij spację aby zacząć odmierzać czas,,>>>>>,0,0,0,0,,,,,0,59,59,1,,,,,,,,,,,,,,,,,,,,,516.100217284984,516.100217284984,right,0,0.7104557260172440,,,,,,25,23,K,W,2023-01-05_15h05.11.204,Flanker,2022.2.4,None,
Przez najbliższe 5 minut proszę kolorować otrzymaną kolorwankę z mandalą. Naciśnij spację aby zacząć odmierzać czas,,,0,0,0,0,,,,,,,,,,,,,,,,,,,,,,,,,,,,,,,,,,,,,,,25,23,K,W,2023-01-05_15h05.11.204,Flanker,2022.2.4,None,
Przez najbliższe 5 minut proszę kolorować otrzymaną pustą kartkę. Naciśnij spację aby zacząć odmierzać czas,<<<<<,,0,1,1,1,0,0,0,0,,,,,,,,,516.865029708948,517.8258899420030,space,11.391998003004100,529.2419470159800,829.2440561900150,831.2308857429310,space,7.944447217974810,839.196003288962,848.1818004169040,848.1818004169040,left,0,0.8403015210060400,,,,,,,,,,,,25,23,K,W,2023-01-05_15h05.11.204,Flanker,2022.2.4,None,
Przez najbliższe 5 minut proszę kolorować otrzymaną pustą kartkę. Naciśnij spację aby zacząć odmierzać czas,>><>>,,0,1,1,1,0,1,1,3,,,,,,,,,,,,,,,,,,,850.0293850259620,850.0293850259620,left,0,0.8153494129655880,,,,,,,,,,,,25,23,K,W,2023-01-05_15h05.11.204,Flanker,2022.2.4,None,
Przez najbliższe 5 minut proszę kolorować otrzymaną pustą kartkę. Naciśnij spację aby zacząć odmierzać czas,-->--,,0,1,1,1,0,2,2,5,,,,,,,,,,,,,,,,,,,851.8676199699990,851.8676199699990,right,0,0.495057106949389,,,,,,,,,,,,25,23,K,W,2023-01-05_15h05.11.204,Flanker,2022.2.4,None,
Przez najbliższe 5 minut proszę kolorować otrzymaną pustą kartkę. Naciśnij spację aby zacząć odmierzać czas,>>>>>,,0,1,1,1,0,3,3,1,,,,,,,,,,,,,,,,,,,853.3943217229100,853.3943217229100,right,0,0.5004364779451860,,,,,,,,,,,,25,23,K,W,2023-01-05_15h05.11.204,Flanker,2022.2.4,None,
Przez najbliższe 5 minut proszę kolorować otrzymaną pustą kartkę. Naciśnij spację aby zacząć odmierzać czas,--<--,,0,1,1,1,0,4,4,4,,,,,,,,,,,,,,,,,,,854.9148477459090,854.9148477459090,left,0,0.4588765299413350,,,,,,,,,,,,25,23,K,W,2023-01-05_15h05.11.204,Flanker,2022.2.4,None,
Przez najbliższe 5 minut proszę kolorować otrzymaną pustą kartkę. Naciśnij spację aby zacząć odmierzać czas,<<><<,,0,1,1,1,0,5,5,2,,,,,,,,,,,,,,,,,,,856.3900636020120,856.3900636020120,right,0,0.8514696269994600,,,,,,,,,,,,25,23,K,W,2023-01-05_15h05.11.204,Flanker,2022.2.4,None,
Przez najbliższe 5 minut proszę kolorować otrzymaną pustą kartkę. Naciśnij spację aby zacząć odmierzać czas,,>><>>,0,1,1,1,,,,,0,0,0,35,,,,,,,,,,,,,,,,,,,,858.2464216109370,866.2514843029200,866.2514843029200,left,0,0.7811361569911240,865.256066967966,,,,,25,23,K,W,2023-01-05_15h05.11.204,Flanker,2022.2.4,None,
Przez najbliższe 5 minut proszę kolorować otrzymaną pustą kartkę. Naciśnij spację aby zacząć odmierzać czas,,--<--,0,1,1,1,,,,,0,1,1,47,,,,,,,,,,,,,,,,,,,,,868.0388684159840,868.0388684159840,left,0,0.5542090300004930,,,,,,25,23,K,W,2023-01-05_15h05.11.204,Flanker,2022.2.4,None,
Przez najbliższe 5 minut proszę kolorować otrzymaną pustą kartkę. Naciśnij spację aby zacząć odmierzać czas,,--<--,0,1,1,1,,,,,0,2,2,40,,,,,,,,,,,,,,,,,,,,,869.6031590289200,869.6031590289200,left,0,0.38072254799772100,,,,,,25,23,K,W,2023-01-05_15h05.11.204,Flanker,2022.2.4,None,
Przez najbliższe 5 minut proszę kolorować otrzymaną pustą kartkę. Naciśnij spację aby zacząć odmierzać czas,,<<><<,0,1,1,1,,,,,0,3,3,20,,,,,,,,,,,,,,,,,,,,,871.0022757599360,871.0022757599360,right,0,0.591698995907791,,,,,,25,23,K,W,2023-01-05_15h05.11.204,Flanker,2022.2.4,None,
Przez najbliższe 5 minut proszę kolorować otrzymaną pustą kartkę. Naciśnij spację aby zacząć odmierzać czas,,-->--,0,1,1,1,,,,,0,4,4,56,,,,,,,,,,,,,,,,,,,,,872.6025239339800,872.6025239339800,right,0,0.4303542170673610,,,,,,25,23,K,W,2023-01-05_15h05.11.204,Flanker,2022.2.4,None,
Przez najbliższe 5 minut proszę kolorować otrzymaną pustą kartkę. Naciśnij spację aby zacząć odmierzać czas,,<<><<,0,1,1,1,,,,,0,5,5,26,,,,,,,,,,,,,,,,,,,,,874.0372068919240,874.0372068919240,right,0,0.4925667380448430,,,,,,25,23,K,W,2023-01-05_15h05.11.204,Flanker,2022.2.4,None,
Przez najbliższe 5 minut proszę kolorować otrzymaną pustą kartkę. Naciśnij spację aby zacząć odmierzać czas,,--<--,0,1,1,1,,,,,0,6,6,46,,,,,,,,,,,,,,,,,,,,,875.5340974729040,875.5340974729040,left,0,0.48569781403057300,,,,,,25,23,K,W,2023-01-05_15h05.11.204,Flanker,2022.2.4,None,
Przez najbliższe 5 minut proszę kolorować otrzymaną pustą kartkę. Naciśnij spację aby zacząć odmierzać czas,,<<<<<,0,1,1,1,,,,,0,7,7,15,,,,,,,,,,,,,,,,,,,,,877.0213819849310,877.0213819849310,left,0,0.42555465002078600,,,,,,25,23,K,W,2023-01-05_15h05.11.204,Flanker,2022.2.4,None,
Przez najbliższe 5 minut proszę kolorować otrzymaną pustą kartkę. Naciśnij spację aby zacząć odmierzać czas,,>><>>,0,1,1,1,,,,,0,8,8,37,,,,,,,,,,,,,,,,,,,,,878.4530800830110,878.4530800830110,left,0,0.8248153210151940,,,,,,25,23,K,W,2023-01-05_15h05.11.204,Flanker,2022.2.4,None,
Przez najbliższe 5 minut proszę kolorować otrzymaną pustą kartkę. Naciśnij spację aby zacząć odmierzać czas,,--<--,0,1,1,1,,,,,0,9,9,49,,,,,,,,,,,,,,,,,,,,,880.3121030320180,880.3121030320180,left,0,0.47165465890429900,,,,,,25,23,K,W,2023-01-05_15h05.11.204,Flanker,2022.2.4,None,
Przez najbliższe 5 minut proszę kolorować otrzymaną pustą kartkę. Naciśnij spację aby zacząć odmierzać czas,,<<<<<,0,1,1,1,,,,,0,10,10,16,,,,,,,,,,,,,,,,,,,,,881.795627058018,881.795627058018,left,0,0.4701965940184890,,,,,,25,23,K,W,2023-01-05_15h05.11.204,Flanker,2022.2.4,None,
Przez najbliższe 5 minut proszę kolorować otrzymaną pustą kartkę. Naciśnij spację aby zacząć odmierzać czas,,-->--,0,1,1,1,,,,,0,11,11,53,,,,,,,,,,,,,,,,,,,,,883.2791141599880,883.2791141599880,right,0,0.500763452029787,,,,,,25,23,K,W,2023-01-05_15h05.11.204,Flanker,2022.2.4,None,
Przez najbliższe 5 minut proszę kolorować otrzymaną pustą kartkę. Naciśnij spację aby zacząć odmierzać czas,,-->--,0,1,1,1,,,,,0,12,12,54,,,,,,,,,,,,,,,,,,,,,884.7953481419250,884.7953481419250,right,0,0.40532218001317200,,,,,,25,23,K,W,2023-01-05_15h05.11.204,Flanker,2022.2.4,None,
Przez najbliższe 5 minut proszę kolorować otrzymaną pustą kartkę. Naciśnij spację aby zacząć odmierzać czas,,>>>>>,0,1,1,1,,,,,0,13,13,7,,,,,,,,,,,,,,,,,,,,,886.2013220719530,886.2013220719530,right,0,0.5233326059533280,,,,,,25,23,K,W,2023-01-05_15h05.11.204,Flanker,2022.2.4,None,
Przez najbliższe 5 minut proszę kolorować otrzymaną pustą kartkę. Naciśnij spację aby zacząć odmierzać czas,,<<><<,0,1,1,1,,,,,0,14,14,25,,,,,,,,,,,,,,,,,,,,,887.7302359689490,887.7302359689490,right,0,0.6143293660134080,,,,,,25,23,K,W,2023-01-05_15h05.11.204,Flanker,2022.2.4,None,
Przez najbliższe 5 minut proszę kolorować otrzymaną pustą kartkę. Naciśnij spację aby zacząć odmierzać czas,,-->--,0,1,1,1,,,,,0,15,15,51,,,,,,,,,,,,,,,,,,,,,889.3626363209910,889.3626363209910,right,0,0.44978744094260000,,,,,,25,23,K,W,2023-01-05_15h05.11.204,Flanker,2022.2.4,None,
Przez najbliższe 5 minut proszę kolorować otrzymaną pustą kartkę. Naciśnij spację aby zacząć odmierzać czas,,>><>>,0,1,1,1,,,,,0,16,16,31,,,,,,,,,,,,,,,,,,,,,890.8146190620030,890.8146190620030,left,0,0.9469312189612540,,,,,,25,23,K,W,2023-01-05_15h05.11.204,Flanker,2022.2.4,None,
Przez najbliższe 5 minut proszę kolorować otrzymaną pustą kartkę. Naciśnij spację aby zacząć odmierzać czas,,<<><<,0,1,1,1,,,,,0,17,17,24,,,,,,,,,,,,,,,,,,,,,892.7795446219390,892.7795446219390,right,0,0.6380584789440040,,,,,,25,23,K,W,2023-01-05_15h05.11.204,Flanker,2022.2.4,None,
Przez najbliższe 5 minut proszę kolorować otrzymaną pustą kartkę. Naciśnij spację aby zacząć odmierzać czas,,>><>>,0,1,1,1,,,,,0,18,18,34,,,,,,,,,,,,,,,,,,,,,894.4788989579540,894.4788989579540,left,0,0.6875203889794650,,,,,,25,23,K,W,2023-01-05_15h05.11.204,Flanker,2022.2.4,None,
Przez najbliższe 5 minut proszę kolorować otrzymaną pustą kartkę. Naciśnij spację aby zacząć odmierzać czas,,--<--,0,1,1,1,,,,,0,19,19,42,,,,,,,,,,,,,,,,,,,,,896.1830776229040,896.1830776229040,left,0,0.5141854881076140,,,,,,25,23,K,W,2023-01-05_15h05.11.204,Flanker,2022.2.4,None,
Przez najbliższe 5 minut proszę kolorować otrzymaną pustą kartkę. Naciśnij spację aby zacząć odmierzać czas,,<<<<<,0,1,1,1,,,,,0,20,20,19,,,,,,,,,,,,,,,,,,,,,897.7066924929390,897.7066924929390,left,0,0.49179091898258800,,,,,,25,23,K,W,2023-01-05_15h05.11.204,Flanker,2022.2.4,None,
Przez najbliższe 5 minut proszę kolorować otrzymaną pustą kartkę. Naciśnij spację aby zacząć odmierzać czas,,-->--,0,1,1,1,,,,,0,21,21,50,,,,,,,,,,,,,,,,,,,,,899.2007739829130,899.2007739829130,right,0,0.4646583909634500,,,,,,25,23,K,W,2023-01-05_15h05.11.204,Flanker,2022.2.4,None,
Przez najbliższe 5 minut proszę kolorować otrzymaną pustą kartkę. Naciśnij spację aby zacząć odmierzać czas,,--<--,0,1,1,1,,,,,0,22,22,41,,,,,,,,,,,,,,,,,,,,,900.6727550500070,900.6727550500070,left,0,0.47870015096850700,,,,,,25,23,K,W,2023-01-05_15h05.11.204,Flanker,2022.2.4,None,
Przez najbliższe 5 minut proszę kolorować otrzymaną pustą kartkę. Naciśnij spację aby zacząć odmierzać czas,,<<><<,0,1,1,1,,,,,0,23,23,27,,,,,,,,,,,,,,,,,,,,,902.166078855982,902.166078855982,right,0,0.8003549870336430,,,,,,25,23,K,W,2023-01-05_15h05.11.204,Flanker,2022.2.4,None,
Przez najbliższe 5 minut proszę kolorować otrzymaną pustą kartkę. Naciśnij spację aby zacząć odmierzać czas,,<<<<<,0,1,1,1,,,,,0,24,24,10,,,,,,,,,,,,,,,,,,,,,903.9779784969290,903.9779784969290,left,0,0.5862204181030390,,,,,,25,23,K,W,2023-01-05_15h05.11.204,Flanker,2022.2.4,None,
Przez najbliższe 5 minut proszę kolorować otrzymaną pustą kartkę. Naciśnij spację aby zacząć odmierzać czas,,>><>>,0,1,1,1,,,,,0,25,25,30,,,,,,,,,,,,,,,,,,,,,905.5712531519820,905.5712531519820,left,0,0.5866150619694960,,,,,,25,23,K,W,2023-01-05_15h05.11.204,Flanker,2022.2.4,None,
Przez najbliższe 5 minut proszę kolorować otrzymaną pustą kartkę. Naciśnij spację aby zacząć odmierzać czas,,<<><<,0,1,1,1,,,,,0,26,26,21,,,,,,,,,,,,,,,,,,,,,907.166087319958,907.166087319958,right,0,0.5921511359047150,,,,,,25,23,K,W,2023-01-05_15h05.11.204,Flanker,2022.2.4,None,
Przez najbliższe 5 minut proszę kolorować otrzymaną pustą kartkę. Naciśnij spację aby zacząć odmierzać czas,,>>>>>,0,1,1,1,,,,,0,27,27,9,,,,,,,,,,,,,,,,,,,,,908.7679595019440,908.7679595019440,right,0,0.4353044480085370,,,,,,25,23,K,W,2023-01-05_15h05.11.204,Flanker,2022.2.4,None,
Przez najbliższe 5 minut proszę kolorować otrzymaną pustą kartkę. Naciśnij spację aby zacząć odmierzać czas,,>>>>>,0,1,1,1,,,,,0,28,28,6,,,,,,,,,,,,,,,,,,,,,910.2267167589160,910.2267167589160,right,0,0.38057854608632600,,,,,,25,23,K,W,2023-01-05_15h05.11.204,Flanker,2022.2.4,None,
Przez najbliższe 5 minut proszę kolorować otrzymaną pustą kartkę. Naciśnij spację aby zacząć odmierzać czas,,<<><<,0,1,1,1,,,,,0,29,29,23,,,,,,,,,,,,,,,,,,,,,911.6299183969390,911.6299183969390,right,0,0.6163031150354070,,,,,,25,23,K,W,2023-01-05_15h05.11.204,Flanker,2022.2.4,None,
Przez najbliższe 5 minut proszę kolorować otrzymaną pustą kartkę. Naciśnij spację aby zacząć odmierzać czas,,>>>>>,0,1,1,1,,,,,0,30,30,0,,,,,,,,,,,,,,,,,,,,,913.2550534959880,913.2550534959880,right,0,0.3921298780478540,,,,,,25,23,K,W,2023-01-05_15h05.11.204,Flanker,2022.2.4,None,
Przez najbliższe 5 minut proszę kolorować otrzymaną pustą kartkę. Naciśnij spację aby zacząć odmierzać czas,,>>>>> ,0,1,1,1,,,,,0,31,31,5,,,,,,,,,,,,,,,,,,,,,914.6559680179930,914.6559680179930,right,0,0.4320702599361540,,,,,,25,23,K,W,2023-01-05_15h05.11.204,Flanker,2022.2.4,None,
Przez najbliższe 5 minut proszę kolorować otrzymaną pustą kartkę. Naciśnij spację aby zacząć odmierzać czas,,--<--,0,1,1,1,,,,,0,32,32,45,,,,,,,,,,,,,,,,,,,,,916.100524347974,916.100524347974,left,0,0.44851985399145600,,,,,,25,23,K,W,2023-01-05_15h05.11.204,Flanker,2022.2.4,None,
Przez najbliższe 5 minut proszę kolorować otrzymaną pustą kartkę. Naciśnij spację aby zacząć odmierzać czas,,<<<<<,0,1,1,1,,,,,0,33,33,12,,,,,,,,,,,,,,,,,,,,,917.5646516219710,917.5646516219710,left,0,0.44143409992102500,,,,,,25,23,K,W,2023-01-05_15h05.11.204,Flanker,2022.2.4,None,
Przez najbliższe 5 minut proszę kolorować otrzymaną pustą kartkę. Naciśnij spację aby zacząć odmierzać czas,,<<<<<,0,1,1,1,,,,,0,34,34,13,,,,,,,,,,,,,,,,,,,,,919.0216082190160,919.0216082190160,left,0,0.346441162051633,,,,,,25,23,K,W,2023-01-05_15h05.11.204,Flanker,2022.2.4,None,
Przez najbliższe 5 minut proszę kolorować otrzymaną pustą kartkę. Naciśnij spację aby zacząć odmierzać czas,,-->--,0,1,1,1,,,,,0,35,35,58,,,,,,,,,,,,,,,,,,,,,920.3846267450140,920.3846267450140,right,0,0.44232131994795100,,,,,,25,23,K,W,2023-01-05_15h05.11.204,Flanker,2022.2.4,None,
Przez najbliższe 5 minut proszę kolorować otrzymaną pustą kartkę. Naciśnij spację aby zacząć odmierzać czas,,<<<<<,0,1,1,1,,,,,0,36,36,18,,,,,,,,,,,,,,,,,,,,,921.8363341219960,921.8363341219960,left,0,0.4306462639942770,,,,,,25,23,K,W,2023-01-05_15h05.11.204,Flanker,2022.2.4,None,
Przez najbliższe 5 minut proszę kolorować otrzymaną pustą kartkę. Naciśnij spację aby zacząć odmierzać czas,,>><>>,0,1,1,1,,,,,0,37,37,39,,,,,,,,,,,,,,,,,,,,,923.2820897779890,923.2820897779890,left,0,0.6078918529674410,,,,,,25,23,K,W,2023-01-05_15h05.11.204,Flanker,2022.2.4,None,
Przez najbliższe 5 minut proszę kolorować otrzymaną pustą kartkę. Naciśnij spację aby zacząć odmierzać czas,,>>>>>,0,1,1,1,,,,,0,38,38,1,,,,,,,,,,,,,,,,,,,,,924.9012978919780,924.9012978919780,right,0,0.6386680509895090,,,,,,25,23,K,W,2023-01-05_15h05.11.204,Flanker,2022.2.4,None,
Przez najbliższe 5 minut proszę kolorować otrzymaną pustą kartkę. Naciśnij spację aby zacząć odmierzać czas,,-->--,0,1,1,1,,,,,0,39,39,57,,,,,,,,,,,,,,,,,,,,,926.5389832969520,926.5389832969520,right,0,0.4708167460048570,,,,,,25,23,K,W,2023-01-05_15h05.11.204,Flanker,2022.2.4,None,
Przez najbliższe 5 minut proszę kolorować otrzymaną pustą kartkę. Naciśnij spację aby zacząć odmierzać czas,,--<--,0,1,1,1,,,,,0,40,40,43,,,,,,,,,,,,,,,,,,,,,928.0117776109840,928.0117776109840,left,0,0.4549700350034980,,,,,,25,23,K,W,2023-01-05_15h05.11.204,Flanker,2022.2.4,None,
Przez najbliższe 5 minut proszę kolorować otrzymaną pustą kartkę. Naciśnij spację aby zacząć odmierzać czas,,>>>>>,0,1,1,1,,,,,0,41,41,4,,,,,,,,,,,,,,,,,,,,,929.4852225389330,929.4852225389330,right,0,0.4275214889785280,,,,,,25,23,K,W,2023-01-05_15h05.11.204,Flanker,2022.2.4,None,
Przez najbliższe 5 minut proszę kolorować otrzymaną pustą kartkę. Naciśnij spację aby zacząć odmierzać czas,,>><>>,0,1,1,1,,,,,0,42,42,36,,,,,,,,,,,,,,,,,,,,,930.9302387780040,930.9302387780040,left,0,0.624462716979906,,,,,,25,23,K,W,2023-01-05_15h05.11.204,Flanker,2022.2.4,None,
Przez najbliższe 5 minut proszę kolorować otrzymaną pustą kartkę. Naciśnij spację aby zacząć odmierzać czas,,<<<<<,0,1,1,1,,,,,0,43,43,17,,,,,,,,,,,,,,,,,,,,,932.5622516879810,932.5622516879810,left,0,0.47348129795864200,,,,,,25,23,K,W,2023-01-05_15h05.11.204,Flanker,2022.2.4,None,
Przez najbliższe 5 minut proszę kolorować otrzymaną pustą kartkę. Naciśnij spację aby zacząć odmierzać czas,,-->--,0,1,1,1,,,,,0,44,44,59,,,,,,,,,,,,,,,,,,,,,934.0388639220040,934.0388639220040,right,0,0.4378895240370180,,,,,,25,23,K,W,2023-01-05_15h05.11.204,Flanker,2022.2.4,None,
Przez najbliższe 5 minut proszę kolorować otrzymaną pustą kartkę. Naciśnij spację aby zacząć odmierzać czas,,-->--,0,1,1,1,,,,,0,45,45,52,,,,,,,,,,,,,,,,,,,,,935.4818422029490,935.4818422029490,right,0,0.4168664449825880,,,,,,25,23,K,W,2023-01-05_15h05.11.204,Flanker,2022.2.4,None,
Przez najbliższe 5 minut proszę kolorować otrzymaną pustą kartkę. Naciśnij spację aby zacząć odmierzać czas,,<<><<,0,1,1,1,,,,,0,46,46,28,,,,,,,,,,,,,,,,,,,,,936.9162358109610,936.9162358109610,right,0,0.629402759950608,,,,,,25,23,K,W,2023-01-05_15h05.11.204,Flanker,2022.2.4,None,
Przez najbliższe 5 minut proszę kolorować otrzymaną pustą kartkę. Naciśnij spację aby zacząć odmierzać czas,,>>>>>,0,1,1,1,,,,,0,47,47,2,,,,,,,,,,,,,,,,,,,,,938.5492214569820,938.5492214569820,right,0,0.37742396001704000,,,,,,25,23,K,W,2023-01-05_15h05.11.204,Flanker,2022.2.4,None,
Przez najbliższe 5 minut proszę kolorować otrzymaną pustą kartkę. Naciśnij spację aby zacząć odmierzać czas,,--<--,0,1,1,1,,,,,0,48,48,48,,,,,,,,,,,,,,,,,,,,,939.9282727439420,939.9282727439420,left,0,0.4392708250088620,,,,,,25,23,K,W,2023-01-05_15h05.11.204,Flanker,2022.2.4,None,
Przez najbliższe 5 minut proszę kolorować otrzymaną pustą kartkę. Naciśnij spację aby zacząć odmierzać czas,,>>>>>,0,1,1,1,,,,,0,49,49,3,,,,,,,,,,,,,,,,,,,,,941.3735337809190,941.3735337809190,right,0,0.41498105006758100,,,,,,25,23,K,W,2023-01-05_15h05.11.204,Flanker,2022.2.4,None,
Przez najbliższe 5 minut proszę kolorować otrzymaną pustą kartkę. Naciśnij spację aby zacząć odmierzać czas,,-->--,0,1,1,1,,,,,0,50,50,55,,,,,,,,,,,,,,,,,,,,,942.8145192499510,942.8145192499510,right,0,0.4221830649767070,,,,,,25,23,K,W,2023-01-05_15h05.11.204,Flanker,2022.2.4,None,
Przez najbliższe 5 minut proszę kolorować otrzymaną pustą kartkę. Naciśnij spację aby zacząć odmierzać czas,,<<><<,0,1,1,1,,,,,0,51,51,29,,,,,,,,,,,,,,,,,,,,,944.249341089977,944.249341089977,right,0,0.6062766190152620,,,,,,25,23,K,W,2023-01-05_15h05.11.204,Flanker,2022.2.4,None,
Przez najbliższe 5 minut proszę kolorować otrzymaną pustą kartkę. Naciśnij spację aby zacząć odmierzać czas,,<<><<,0,1,1,1,,,,,0,52,52,22,,,,,,,,,,,,,,,,,,,,,945.8654734479500,945.8654734479500,right,0,0.42004895000718500,,,,,,25,23,K,W,2023-01-05_15h05.11.204,Flanker,2022.2.4,None,
Przez najbliższe 5 minut proszę kolorować otrzymaną pustą kartkę. Naciśnij spację aby zacząć odmierzać czas,,<<<<<,0,1,1,1,,,,,0,53,53,14,,,,,,,,,,,,,,,,,,,,,947.311368766008,947.311368766008,left,0,0.5291468730429190,,,,,,25,23,K,W,2023-01-05_15h05.11.204,Flanker,2022.2.4,None,
Przez najbliższe 5 minut proszę kolorować otrzymaną pustą kartkę. Naciśnij spację aby zacząć odmierzać czas,,>><>>,0,1,1,1,,,,,0,54,54,32,,,,,,,,,,,,,,,,,,,,,948.8554884030020,948.8554884030020,left,0,0.65487180207856,,,,,,25,23,K,W,2023-01-05_15h05.11.204,Flanker,2022.2.4,None,
Przez najbliższe 5 minut proszę kolorować otrzymaną pustą kartkę. Naciśnij spację aby zacząć odmierzać czas,,<<<<<,0,1,1,1,,,,,0,55,55,11,,,,,,,,,,,,,,,,,,,,,950.530339609948,950.530339609948,left,0,0.7371921249432490,,,,,,25,23,K,W,2023-01-05_15h05.11.204,Flanker,2022.2.4,None,
Przez najbliższe 5 minut proszę kolorować otrzymaną pustą kartkę. Naciśnij spację aby zacząć odmierzać czas,,--<--,0,1,1,1,,,,,0,56,56,44,,,,,,,,,,,,,,,,,,,,,952.2838060989740,952.2838060989740,left,0,0.9744408989790830,,,,,,25,23,K,W,2023-01-05_15h05.11.204,Flanker,2022.2.4,None,
Przez najbliższe 5 minut proszę kolorować otrzymaną pustą kartkę. Naciśnij spację aby zacząć odmierzać czas,,>>>>>,0,1,1,1,,,,,0,57,57,8,,,,,,,,,,,,,,,,,,,,,954.2818899739070,954.2818899739070,right,0,0.44539363496005500,,,,,,25,23,K,W,2023-01-05_15h05.11.204,Flanker,2022.2.4,None,
Przez najbliższe 5 minut proszę kolorować otrzymaną pustą kartkę. Naciśnij spację aby zacząć odmierzać czas,,>><>>,0,1,1,1,,,,,0,58,58,38,,,,,,,,,,,,,,,,,,,,,955.7356140599590,955.7356140599590,left,0,0.7206490120152010,,,,,,25,23,K,W,2023-01-05_15h05.11.204,Flanker,2022.2.4,None,
Przez najbliższe 5 minut proszę kolorować otrzymaną pustą kartkę. Naciśnij spację aby zacząć odmierzać czas,,>><>>,0,1,1,1,,,,,0,59,59,33,,,,,,,,,,,,,,,,,,,,,957.4765680179700,957.4765680179700,left,0,0.8697041870327670,,,,,,25,23,K,W,2023-01-05_15h05.11.204,Flanker,2022.2.4,None,
Przez najbliższe 5 minut proszę kolorować otrzymaną pustą kartkę. Naciśnij spację aby zacząć odmierzać czas,,,0,1,1,1,,,,,,,,,,,,,,,,,,,,,,,,,,,,,,,,,,,,,,,25,23,K,W,2023-01-05_15h05.11.204,Flanker,2022.2.4,None,
,,,,,,,,,,,,,,,,,,,,,,,,,,,,,,,,,,,,,,,,,959.3525215359410,959.3525215359410,space,3.4139739450765800,25,23,K,W,2023-01-05_15h05.11.204,Flanker,2022.2.4,None,