kolorowanka,Example,Stimuli,proby.thisRepN,proby.thisTrialN,proby.thisN,proby.thisIndex,zapoznanie.thisRepN,zapoznanie.thisTrialN,zapoznanie.thisN,zapoznanie.thisIndex,Warunki.thisRepN,Warunki.thisTrialN,Warunki.thisN,Warunki.thisIndex,Intro.started,Intro_resp.started,Intro_resp.keys,Intro_resp.rt,Kolorowanie1.started,starttt.started,starttt.keys,starttt.rt,koloruj.started,Instruction.started,key_resp.started,key_resp.keys,key_resp.rt,Wyjasnienie.started,text.started,odp_przyk.started,odp_przyk.keys,odp_przyk.corr,odp_przyk.rt,zapo.started,Zadanie.started,Odp.started,Odp.keys,Odp.corr,Odp.rt,zapo.stopped,thanks.started,KONIEC.started,KONIEC.keys,KONIEC.rt,participant,Wiek (w latach),Płeć (K/M),Entropia,date,expName,psychopyVersion,frameRate,
,,,,,,,,,,,,,,,41.30913166400570,43.28675650700460,space,7.543718643995820,,,,,,,,,,,,,,,,,,,,,,,,,,,27,20,K,W,2023-01-13_12h42.04.376,Flanker,2022.2.4,None,
Przez najbliższe 5 minut proszę kolorować otrzymaną kolorwankę z mandalą. Naciśnij spację aby zacząć odmierzać czas,<<<<<,,0,0,0,0,0,0,0,0,,,,,,,,,50.91500758800250,51.85008972500510,space,12.564626380990400,64.4674318920006,364.4444870060110,366.4325013780040,space,30.396939385987900,396.8591668040030,405.84135143800800,405.84135143800800,left,0,0.8898117959906810,,,,,,,,,,,,27,20,K,W,2023-01-13_12h42.04.376,Flanker,2022.2.4,None,
Przez najbliższe 5 minut proszę kolorować otrzymaną kolorwankę z mandalą. Naciśnij spację aby zacząć odmierzać czas,>>>>>,,0,0,0,0,0,1,1,1,,,,,,,,,,,,,,,,,,,407.7362110380050,407.7362110380050,right,0,0.4029355319944440,,,,,,,,,,,,27,20,K,W,2023-01-13_12h42.04.376,Flanker,2022.2.4,None,
Przez najbliższe 5 minut proszę kolorować otrzymaną kolorwankę z mandalą. Naciśnij spację aby zacząć odmierzać czas,--<--,,0,0,0,0,0,2,2,4,,,,,,,,,,,,,,,,,,,409.1534704180090,409.1534704180090,left,0,0.6124153559940170,,,,,,,,,,,,27,20,K,W,2023-01-13_12h42.04.376,Flanker,2022.2.4,None,
Przez najbliższe 5 minut proszę kolorować otrzymaną kolorwankę z mandalą. Naciśnij spację aby zacząć odmierzać czas,<<><<,,0,0,0,0,0,3,3,2,,,,,,,,,,,,,,,,,,,410.7845551000060,410.7845551000060,right,0,0.6632939999981320,,,,,,,,,,,,27,20,K,W,2023-01-13_12h42.04.376,Flanker,2022.2.4,None,
Przez najbliższe 5 minut proszę kolorować otrzymaną kolorwankę z mandalą. Naciśnij spację aby zacząć odmierzać czas,-->--,,0,0,0,0,0,4,4,5,,,,,,,,,,,,,,,,,,,412.45664358000800,412.45664358000800,right,0,0.4245922230038560,,,,,,,,,,,,27,20,K,W,2023-01-13_12h42.04.376,Flanker,2022.2.4,None,
Przez najbliższe 5 minut proszę kolorować otrzymaną kolorwankę z mandalą. Naciśnij spację aby zacząć odmierzać czas,>><>>,,0,0,0,0,0,5,5,3,,,,,,,,,,,,,,,,,,,413.89002613500600,413.89002613500600,left,0,0.5748857440048600,,,,,,,,,,,,27,20,K,W,2023-01-13_12h42.04.376,Flanker,2022.2.4,None,
Przez najbliższe 5 minut proszę kolorować otrzymaną kolorwankę z mandalą. Naciśnij spację aby zacząć odmierzać czas,,--<--,0,0,0,0,,,,,0,0,0,49,,,,,,,,,,,,,,,,,,,,415.4840480510030,423.4778046380090,423.4778046380090,left,0,0.47434182299184600,422.49244053001200,,,,,27,20,K,W,2023-01-13_12h42.04.376,Flanker,2022.2.4,None,
Przez najbliższe 5 minut proszę kolorować otrzymaną kolorwankę z mandalą. Naciśnij spację aby zacząć odmierzać czas,,--<--,0,0,0,0,,,,,0,1,1,45,,,,,,,,,,,,,,,,,,,,,424.96849695900200,424.96849695900200,left,0,0.5117567600100300,,,,,,27,20,K,W,2023-01-13_12h42.04.376,Flanker,2022.2.4,None,
Przez najbliższe 5 minut proszę kolorować otrzymaną kolorwankę z mandalą. Naciśnij spację aby zacząć odmierzać czas,,-->--,0,0,0,0,,,,,0,2,2,51,,,,,,,,,,,,,,,,,,,,,426.49529887200300,426.49529887200300,right,0,0.5507826559914970,,,,,,27,20,K,W,2023-01-13_12h42.04.376,Flanker,2022.2.4,None,
Przez najbliższe 5 minut proszę kolorować otrzymaną kolorwankę z mandalą. Naciśnij spację aby zacząć odmierzać czas,,<<<<<,0,0,0,0,,,,,0,3,3,16,,,,,,,,,,,,,,,,,,,,,428.05647161000500,428.05647161000500,left,0,0.517530249999254,,,,,,27,20,K,W,2023-01-13_12h42.04.376,Flanker,2022.2.4,None,
Przez najbliższe 5 minut proszę kolorować otrzymaną kolorwankę z mandalą. Naciśnij spację aby zacząć odmierzać czas,,<<<<<,0,0,0,0,,,,,0,4,4,17,,,,,,,,,,,,,,,,,,,,,429.593355658013,429.593355658013,left,0,0.3978082999965410,,,,,,27,20,K,W,2023-01-13_12h42.04.376,Flanker,2022.2.4,None,
Przez najbliższe 5 minut proszę kolorować otrzymaną kolorwankę z mandalą. Naciśnij spację aby zacząć odmierzać czas,,-->--,0,0,0,0,,,,,0,5,5,52,,,,,,,,,,,,,,,,,,,,,430.9901536210090,430.9901536210090,right,0,0.38376966799842200,,,,,,27,20,K,W,2023-01-13_12h42.04.376,Flanker,2022.2.4,None,
Przez najbliższe 5 minut proszę kolorować otrzymaną kolorwankę z mandalą. Naciśnij spację aby zacząć odmierzać czas,,<<><<,0,0,0,0,,,,,0,6,6,25,,,,,,,,,,,,,,,,,,,,,432.38109606000900,432.38109606000900,left,0,0.4050442080042560,,,,,,27,20,K,W,2023-01-13_12h42.04.376,Flanker,2022.2.4,None,
Przez najbliższe 5 minut proszę kolorować otrzymaną kolorwankę z mandalą. Naciśnij spację aby zacząć odmierzać czas,,-->--,0,0,0,0,,,,,0,7,7,58,,,,,,,,,,,,,,,,,,,,,433.790579241002,433.790579241002,right,0,0.42131983100262000,,,,,,27,20,K,W,2023-01-13_12h42.04.376,Flanker,2022.2.4,None,
Przez najbliższe 5 minut proszę kolorować otrzymaną kolorwankę z mandalą. Naciśnij spację aby zacząć odmierzać czas,,<<<<<,0,0,0,0,,,,,0,8,8,15,,,,,,,,,,,,,,,,,,,,,435.22054011600300,435.22054011600300,left,0,0.3924598250014240,,,,,,27,20,K,W,2023-01-13_12h42.04.376,Flanker,2022.2.4,None,
Przez najbliższe 5 minut proszę kolorować otrzymaną kolorwankę z mandalą. Naciśnij spację aby zacząć odmierzać czas,,--<--,0,0,0,0,,,,,0,9,9,43,,,,,,,,,,,,,,,,,,,,,436.61839392001300,436.61839392001300,left,0,0.40333086499595100,,,,,,27,20,K,W,2023-01-13_12h42.04.376,Flanker,2022.2.4,None,
Przez najbliższe 5 minut proszę kolorować otrzymaną kolorwankę z mandalą. Naciśnij spację aby zacząć odmierzać czas,,>>>>>,0,0,0,0,,,,,0,10,10,2,,,,,,,,,,,,,,,,,,,,,438.0285610830030,438.0285610830030,right,0,0.4205462649988480,,,,,,27,20,K,W,2023-01-13_12h42.04.376,Flanker,2022.2.4,None,
Przez najbliższe 5 minut proszę kolorować otrzymaną kolorwankę z mandalą. Naciśnij spację aby zacząć odmierzać czas,,<<><<,0,0,0,0,,,,,0,11,11,29,,,,,,,,,,,,,,,,,,,,,439.4614773390060,439.4614773390060,right,0,0.46543662100157200,,,,,,27,20,K,W,2023-01-13_12h42.04.376,Flanker,2022.2.4,None,
Przez najbliższe 5 minut proszę kolorować otrzymaną kolorwankę z mandalą. Naciśnij spację aby zacząć odmierzać czas,,<<<<<,0,0,0,0,,,,,0,12,12,11,,,,,,,,,,,,,,,,,,,,,440.93894805600600,440.93894805600600,left,0,0.5017747150122890,,,,,,27,20,K,W,2023-01-13_12h42.04.376,Flanker,2022.2.4,None,
Przez najbliższe 5 minut proszę kolorować otrzymaną kolorwankę z mandalą. Naciśnij spację aby zacząć odmierzać czas,,-->--,0,0,0,0,,,,,0,13,13,55,,,,,,,,,,,,,,,,,,,,,442.45620979000500,442.45620979000500,right,0,0.3786550039949360,,,,,,27,20,K,W,2023-01-13_12h42.04.376,Flanker,2022.2.4,None,
Przez najbliższe 5 minut proszę kolorować otrzymaną kolorwankę z mandalą. Naciśnij spację aby zacząć odmierzać czas,,>><>>,0,0,0,0,,,,,0,14,14,34,,,,,,,,,,,,,,,,,,,,,443.84797100900300,443.84797100900300,right,0,0.3846588669985070,,,,,,27,20,K,W,2023-01-13_12h42.04.376,Flanker,2022.2.4,None,
Przez najbliższe 5 minut proszę kolorować otrzymaną kolorwankę z mandalą. Naciśnij spację aby zacząć odmierzać czas,,<<><<,0,0,0,0,,,,,0,15,15,23,,,,,,,,,,,,,,,,,,,,,445.2391116400100,445.2391116400100,right,0,0.4525622150104030,,,,,,27,20,K,W,2023-01-13_12h42.04.376,Flanker,2022.2.4,None,
Przez najbliższe 5 minut proszę kolorować otrzymaną kolorwankę z mandalą. Naciśnij spację aby zacząć odmierzać czas,,<<><<,0,0,0,0,,,,,0,16,16,21,,,,,,,,,,,,,,,,,,,,,446.7015884510040,446.7015884510040,right,0,0.5172457890002990,,,,,,27,20,K,W,2023-01-13_12h42.04.376,Flanker,2022.2.4,None,
Przez najbliższe 5 minut proszę kolorować otrzymaną kolorwankę z mandalą. Naciśnij spację aby zacząć odmierzać czas,,>>>>>,0,0,0,0,,,,,0,17,17,8,,,,,,,,,,,,,,,,,,,,,448.23128272700700,448.23128272700700,right,0,0.40647497700410900,,,,,,27,20,K,W,2023-01-13_12h42.04.376,Flanker,2022.2.4,None,
Przez najbliższe 5 minut proszę kolorować otrzymaną kolorwankę z mandalą. Naciśnij spację aby zacząć odmierzać czas,,<<<<<,0,0,0,0,,,,,0,18,18,13,,,,,,,,,,,,,,,,,,,,,449.6616853510060,449.6616853510060,left,0,0.4778907040017660,,,,,,27,20,K,W,2023-01-13_12h42.04.376,Flanker,2022.2.4,None,
Przez najbliższe 5 minut proszę kolorować otrzymaną kolorwankę z mandalą. Naciśnij spację aby zacząć odmierzać czas,,-->--,0,0,0,0,,,,,0,19,19,50,,,,,,,,,,,,,,,,,,,,,451.1559642910000,451.1559642910000,right,0,0.4084446930064590,,,,,,27,20,K,W,2023-01-13_12h42.04.376,Flanker,2022.2.4,None,
Przez najbliższe 5 minut proszę kolorować otrzymaną kolorwankę z mandalą. Naciśnij spację aby zacząć odmierzać czas,,<<><<,0,0,0,0,,,,,0,20,20,22,,,,,,,,,,,,,,,,,,,,,452.56317667500100,452.56317667500100,right,0,0.582511162996525,,,,,,27,20,K,W,2023-01-13_12h42.04.376,Flanker,2022.2.4,None,
Przez najbliższe 5 minut proszę kolorować otrzymaną kolorwankę z mandalą. Naciśnij spację aby zacząć odmierzać czas,,-->--,0,0,0,0,,,,,0,21,21,54,,,,,,,,,,,,,,,,,,,,,454.15280695501100,454.15280695501100,right,0,0.429716461992939,,,,,,27,20,K,W,2023-01-13_12h42.04.376,Flanker,2022.2.4,None,
Przez najbliższe 5 minut proszę kolorować otrzymaną kolorwankę z mandalą. Naciśnij spację aby zacząć odmierzać czas,,>><>>,0,0,0,0,,,,,0,22,22,31,,,,,,,,,,,,,,,,,,,,,455.59028888300200,455.59028888300200,left,0,0.5691485690040280,,,,,,27,20,K,W,2023-01-13_12h42.04.376,Flanker,2022.2.4,None,
Przez najbliższe 5 minut proszę kolorować otrzymaną kolorwankę z mandalą. Naciśnij spację aby zacząć odmierzać czas,,>>>>> ,0,0,0,0,,,,,0,23,23,5,,,,,,,,,,,,,,,,,,,,,457.1554116740010,457.1554116740010,right,0,0.439205825998215,,,,,,27,20,K,W,2023-01-13_12h42.04.376,Flanker,2022.2.4,None,
Przez najbliższe 5 minut proszę kolorować otrzymaną kolorwankę z mandalą. Naciśnij spację aby zacząć odmierzać czas,,<<><<,0,0,0,0,,,,,0,24,24,20,,,,,,,,,,,,,,,,,,,,,458.60104934500100,458.60104934500100,right,0,0.6403873419913000,,,,,,27,20,K,W,2023-01-13_12h42.04.376,Flanker,2022.2.4,None,
Przez najbliższe 5 minut proszę kolorować otrzymaną kolorwankę z mandalą. Naciśnij spację aby zacząć odmierzać czas,,--<--,0,0,0,0,,,,,0,25,25,47,,,,,,,,,,,,,,,,,,,,,460.2464378010050,460.2464378010050,left,0,0.46093855900107900,,,,,,27,20,K,W,2023-01-13_12h42.04.376,Flanker,2022.2.4,None,
Przez najbliższe 5 minut proszę kolorować otrzymaną kolorwankę z mandalą. Naciśnij spację aby zacząć odmierzać czas,,>>>>>,0,0,0,0,,,,,0,26,26,7,,,,,,,,,,,,,,,,,,,,,461.7059952430140,461.7059952430140,right,0,0.40037693599879300,,,,,,27,20,K,W,2023-01-13_12h42.04.376,Flanker,2022.2.4,None,
Przez najbliższe 5 minut proszę kolorować otrzymaną kolorwankę z mandalą. Naciśnij spację aby zacząć odmierzać czas,,>><>>,0,0,0,0,,,,,0,27,27,30,,,,,,,,,,,,,,,,,,,,,463.10520557100200,463.10520557100200,left,0,0.46312722099537500,,,,,,27,20,K,W,2023-01-13_12h42.04.376,Flanker,2022.2.4,None,
Przez najbliższe 5 minut proszę kolorować otrzymaną kolorwankę z mandalą. Naciśnij spację aby zacząć odmierzać czas,,-->--,0,0,0,0,,,,,0,28,28,53,,,,,,,,,,,,,,,,,,,,,464.5714485500070,464.5714485500070,right,0,0.4108514039980950,,,,,,27,20,K,W,2023-01-13_12h42.04.376,Flanker,2022.2.4,None,
Przez najbliższe 5 minut proszę kolorować otrzymaną kolorwankę z mandalą. Naciśnij spację aby zacząć odmierzać czas,,>><>>,0,0,0,0,,,,,0,29,29,38,,,,,,,,,,,,,,,,,,,,,465.99458152000400,465.99458152000400,left,0,0.47567519900621800,,,,,,27,20,K,W,2023-01-13_12h42.04.376,Flanker,2022.2.4,None,
Przez najbliższe 5 minut proszę kolorować otrzymaną kolorwankę z mandalą. Naciśnij spację aby zacząć odmierzać czas,,<<><<,0,0,0,0,,,,,0,30,30,28,,,,,,,,,,,,,,,,,,,,,467.48527364501200,467.48527364501200,right,0,0.47596666000026700,,,,,,27,20,K,W,2023-01-13_12h42.04.376,Flanker,2022.2.4,None,
Przez najbliższe 5 minut proszę kolorować otrzymaną kolorwankę z mandalą. Naciśnij spację aby zacząć odmierzać czas,,--<--,0,0,0,0,,,,,0,31,31,48,,,,,,,,,,,,,,,,,,,,,468.9619541960130,468.9619541960130,left,0,0.4213818970019930,,,,,,27,20,K,W,2023-01-13_12h42.04.376,Flanker,2022.2.4,None,
Przez najbliższe 5 minut proszę kolorować otrzymaną kolorwankę z mandalą. Naciśnij spację aby zacząć odmierzać czas,,>>>>>,0,0,0,0,,,,,0,32,32,1,,,,,,,,,,,,,,,,,,,,,470.3886411380080,470.3886411380080,right,0,0.3936294720042500,,,,,,27,20,K,W,2023-01-13_12h42.04.376,Flanker,2022.2.4,None,
Przez najbliższe 5 minut proszę kolorować otrzymaną kolorwankę z mandalą. Naciśnij spację aby zacząć odmierzać czas,,--<--,0,0,0,0,,,,,0,33,33,42,,,,,,,,,,,,,,,,,,,,,471.7884585120050,471.7884585120050,left,0,0.4567104759917130,,,,,,27,20,K,W,2023-01-13_12h42.04.376,Flanker,2022.2.4,None,
Przez najbliższe 5 minut proszę kolorować otrzymaną kolorwankę z mandalą. Naciśnij spację aby zacząć odmierzać czas,,<<><<,0,0,0,0,,,,,0,34,34,24,,,,,,,,,,,,,,,,,,,,,473.2481117920110,473.2481117920110,right,0,0.4801983079960340,,,,,,27,20,K,W,2023-01-13_12h42.04.376,Flanker,2022.2.4,None,
Przez najbliższe 5 minut proszę kolorować otrzymaną kolorwankę z mandalą. Naciśnij spację aby zacząć odmierzać czas,,--<--,0,0,0,0,,,,,0,35,35,40,,,,,,,,,,,,,,,,,,,,,474.7451459790030,474.7451459790030,left,0,0.3489657640020600,,,,,,27,20,K,W,2023-01-13_12h42.04.376,Flanker,2022.2.4,None,
Przez najbliższe 5 minut proszę kolorować otrzymaną kolorwankę z mandalą. Naciśnij spację aby zacząć odmierzać czas,,>><>>,0,0,0,0,,,,,0,36,36,39,,,,,,,,,,,,,,,,,,,,,476.09398493800800,476.09398493800800,left,0,0.6158507010113680,,,,,,27,20,K,W,2023-01-13_12h42.04.376,Flanker,2022.2.4,None,
Przez najbliższe 5 minut proszę kolorować otrzymaną kolorwankę z mandalą. Naciśnij spację aby zacząć odmierzać czas,,<<<<<,0,0,0,0,,,,,0,37,37,14,,,,,,,,,,,,,,,,,,,,,477.72376440500400,477.72376440500400,left,0,0.45125357901270000,,,,,,27,20,K,W,2023-01-13_12h42.04.376,Flanker,2022.2.4,None,
Przez najbliższe 5 minut proszę kolorować otrzymaną kolorwankę z mandalą. Naciśnij spację aby zacząć odmierzać czas,,--<--,0,0,0,0,,,,,0,38,38,44,,,,,,,,,,,,,,,,,,,,,479.1848656200020,479.1848656200020,left,0,0.39614824700402100,,,,,,27,20,K,W,2023-01-13_12h42.04.376,Flanker,2022.2.4,None,
Przez najbliższe 5 minut proszę kolorować otrzymaną kolorwankę z mandalą. Naciśnij spację aby zacząć odmierzać czas,,<<><<,0,0,0,0,,,,,0,39,39,26,,,,,,,,,,,,,,,,,,,,,480.592834932002,480.592834932002,right,0,0.4932499860005920,,,,,,27,20,K,W,2023-01-13_12h42.04.376,Flanker,2022.2.4,None,
Przez najbliższe 5 minut proszę kolorować otrzymaną kolorwankę z mandalą. Naciśnij spację aby zacząć odmierzać czas,,<<<<<,0,0,0,0,,,,,0,40,40,19,,,,,,,,,,,,,,,,,,,,,482.09425134101200,482.09425134101200,left,0,0.4046616480045490,,,,,,27,20,K,W,2023-01-13_12h42.04.376,Flanker,2022.2.4,None,
Przez najbliższe 5 minut proszę kolorować otrzymaną kolorwankę z mandalą. Naciśnij spację aby zacząć odmierzać czas,,<<<<<,0,0,0,0,,,,,0,41,41,10,,,,,,,,,,,,,,,,,,,,,483.50771343499900,483.50771343499900,left,0,0.3561940290092030,,,,,,27,20,K,W,2023-01-13_12h42.04.376,Flanker,2022.2.4,None,
Przez najbliższe 5 minut proszę kolorować otrzymaną kolorwankę z mandalą. Naciśnij spację aby zacząć odmierzać czas,,>><>>,0,0,0,0,,,,,0,42,42,35,,,,,,,,,,,,,,,,,,,,,484.86648732800700,484.86648732800700,right,0,0.39833524999267000,,,,,,27,20,K,W,2023-01-13_12h42.04.376,Flanker,2022.2.4,None,
Przez najbliższe 5 minut proszę kolorować otrzymaną kolorwankę z mandalą. Naciśnij spację aby zacząć odmierzać czas,,<<<<<,0,0,0,0,,,,,0,43,43,18,,,,,,,,,,,,,,,,,,,,,486.2723218660100,486.2723218660100,left,0,0.39538560700020800,,,,,,27,20,K,W,2023-01-13_12h42.04.376,Flanker,2022.2.4,None,
Przez najbliższe 5 minut proszę kolorować otrzymaną kolorwankę z mandalą. Naciśnij spację aby zacząć odmierzać czas,,>>>>>,0,0,0,0,,,,,0,44,44,9,,,,,,,,,,,,,,,,,,,,,487.6836119630030,487.6836119630030,right,0,0.4081694439955750,,,,,,27,20,K,W,2023-01-13_12h42.04.376,Flanker,2022.2.4,None,
Przez najbliższe 5 minut proszę kolorować otrzymaną kolorwankę z mandalą. Naciśnij spację aby zacząć odmierzać czas,,>>>>>,0,0,0,0,,,,,0,45,45,6,,,,,,,,,,,,,,,,,,,,,489.1031456990020,489.1031456990020,right,0,0.3946023199969200,,,,,,27,20,K,W,2023-01-13_12h42.04.376,Flanker,2022.2.4,None,
Przez najbliższe 5 minut proszę kolorować otrzymaną kolorwankę z mandalą. Naciśnij spację aby zacząć odmierzać czas,,--<--,0,0,0,0,,,,,0,46,46,41,,,,,,,,,,,,,,,,,,,,,490.5043095639990,490.5043095639990,left,0,0.406455469012144,,,,,,27,20,K,W,2023-01-13_12h42.04.376,Flanker,2022.2.4,None,
Przez najbliższe 5 minut proszę kolorować otrzymaną kolorwankę z mandalą. Naciśnij spację aby zacząć odmierzać czas,,>><>>,0,0,0,0,,,,,0,47,47,32,,,,,,,,,,,,,,,,,,,,,491.92741206700200,491.92741206700200,left,0,0.6232446100038940,,,,,,27,20,K,W,2023-01-13_12h42.04.376,Flanker,2022.2.4,None,
Przez najbliższe 5 minut proszę kolorować otrzymaną kolorwankę z mandalą. Naciśnij spację aby zacząć odmierzać czas,,-->--,0,0,0,0,,,,,0,48,48,59,,,,,,,,,,,,,,,,,,,,,493.5592952330040,493.5592952330040,right,0,0.40332593000493900,,,,,,27,20,K,W,2023-01-13_12h42.04.376,Flanker,2022.2.4,None,
Przez najbliższe 5 minut proszę kolorować otrzymaną kolorwankę z mandalą. Naciśnij spację aby zacząć odmierzać czas,,>>>>>,0,0,0,0,,,,,0,49,49,4,,,,,,,,,,,,,,,,,,,,,494.97914718800200,494.97914718800200,right,0,0.41554705798625900,,,,,,27,20,K,W,2023-01-13_12h42.04.376,Flanker,2022.2.4,None,
Przez najbliższe 5 minut proszę kolorować otrzymaną kolorwankę z mandalą. Naciśnij spację aby zacząć odmierzać czas,,>>>>>,0,0,0,0,,,,,0,50,50,0,,,,,,,,,,,,,,,,,,,,,496.4100579950030,496.4100579950030,right,0,0.4093900529987880,,,,,,27,20,K,W,2023-01-13_12h42.04.376,Flanker,2022.2.4,None,
Przez najbliższe 5 minut proszę kolorować otrzymaną kolorwankę z mandalą. Naciśnij spację aby zacząć odmierzać czas,,>><>>,0,0,0,0,,,,,0,51,51,33,,,,,,,,,,,,,,,,,,,,,497.8426773930110,497.8426773930110,left,0,0.6029024290037340,,,,,,27,20,K,W,2023-01-13_12h42.04.376,Flanker,2022.2.4,None,
Przez najbliższe 5 minut proszę kolorować otrzymaną kolorwankę z mandalą. Naciśnij spację aby zacząć odmierzać czas,,<<><<,0,0,0,0,,,,,0,52,52,27,,,,,,,,,,,,,,,,,,,,,499.46330218500200,499.46330218500200,right,0,0.5833185399969810,,,,,,27,20,K,W,2023-01-13_12h42.04.376,Flanker,2022.2.4,None,
Przez najbliższe 5 minut proszę kolorować otrzymaną kolorwankę z mandalą. Naciśnij spację aby zacząć odmierzać czas,,>>>>>,0,0,0,0,,,,,0,53,53,3,,,,,,,,,,,,,,,,,,,,,501.0698274010070,501.0698274010070,right,0,0.4056756799982400,,,,,,27,20,K,W,2023-01-13_12h42.04.376,Flanker,2022.2.4,None,
Przez najbliższe 5 minut proszę kolorować otrzymaną kolorwankę z mandalą. Naciśnij spację aby zacząć odmierzać czas,,--<--,0,0,0,0,,,,,0,54,54,46,,,,,,,,,,,,,,,,,,,,,502.4772872610050,502.4772872610050,left,0,0.40626286799670200,,,,,,27,20,K,W,2023-01-13_12h42.04.376,Flanker,2022.2.4,None,
Przez najbliższe 5 minut proszę kolorować otrzymaną kolorwankę z mandalą. Naciśnij spację aby zacząć odmierzać czas,,>><>>,0,0,0,0,,,,,0,55,55,37,,,,,,,,,,,,,,,,,,,,,503.8970537960120,503.8970537960120,left,0,0.5374611430015650,,,,,,27,20,K,W,2023-01-13_12h42.04.376,Flanker,2022.2.4,None,
Przez najbliższe 5 minut proszę kolorować otrzymaną kolorwankę z mandalą. Naciśnij spację aby zacząć odmierzać czas,,-->--,0,0,0,0,,,,,0,56,56,56,,,,,,,,,,,,,,,,,,,,,505.44635450800700,505.44635450800700,right,0,0.4369194699975200,,,,,,27,20,K,W,2023-01-13_12h42.04.376,Flanker,2022.2.4,None,
Przez najbliższe 5 minut proszę kolorować otrzymaną kolorwankę z mandalą. Naciśnij spację aby zacząć odmierzać czas,,<<<<<,0,0,0,0,,,,,0,57,57,12,,,,,,,,,,,,,,,,,,,,,506.89419739200100,506.89419739200100,left,0,0.3971476690057900,,,,,,27,20,K,W,2023-01-13_12h42.04.376,Flanker,2022.2.4,None,
Przez najbliższe 5 minut proszę kolorować otrzymaną kolorwankę z mandalą. Naciśnij spację aby zacząć odmierzać czas,,>><>>,0,0,0,0,,,,,0,58,58,36,,,,,,,,,,,,,,,,,,,,,508.29974112901300,508.29974112901300,left,0,0.5515752509963930,,,,,,27,20,K,W,2023-01-13_12h42.04.376,Flanker,2022.2.4,None,
Przez najbliższe 5 minut proszę kolorować otrzymaną kolorwankę z mandalą. Naciśnij spację aby zacząć odmierzać czas,,-->--,0,0,0,0,,,,,0,59,59,57,,,,,,,,,,,,,,,,,,,,,509.8529373220080,509.8529373220080,right,0,0.4233448809973200,,,,,,27,20,K,W,2023-01-13_12h42.04.376,Flanker,2022.2.4,None,
Przez najbliższe 5 minut proszę kolorować otrzymaną kolorwankę z mandalą. Naciśnij spację aby zacząć odmierzać czas,,,0,0,0,0,,,,,,,,,,,,,,,,,,,,,,,,,,,,,,,,,,,,,,,27,20,K,W,2023-01-13_12h42.04.376,Flanker,2022.2.4,None,
Przez najbliższe 5 minut proszę kolorować otrzymaną pustą kartkę. Naciśnij spację aby zacząć odmierzać czas,>><>>,,0,1,1,1,0,0,0,3,,,,,,,,,510.32539946600400,511.294220708005,space,5.085091239991020,516.4052147560000,816.4086498280090,818.3920845600080,space,4.3483808699966200,822.7699671020090,831.7601815030070,831.7601815030070,left,0,0.7329967969999420,,,,,,,,,,,,27,20,K,W,2023-01-13_12h42.04.376,Flanker,2022.2.4,None,
Przez najbliższe 5 minut proszę kolorować otrzymaną pustą kartkę. Naciśnij spację aby zacząć odmierzać czas,>>>>>,,0,1,1,1,0,1,1,1,,,,,,,,,,,,,,,,,,,833.5068128310090,833.5068128310090,right,0,0.36714372198912300,,,,,,,,,,,,27,20,K,W,2023-01-13_12h42.04.376,Flanker,2022.2.4,None,
Przez najbliższe 5 minut proszę kolorować otrzymaną pustą kartkę. Naciśnij spację aby zacząć odmierzać czas,--<--,,0,1,1,1,0,2,2,4,,,,,,,,,,,,,,,,,,,834.8924306980040,834.8924306980040,left,0,0.39767835900420300,,,,,,,,,,,,27,20,K,W,2023-01-13_12h42.04.376,Flanker,2022.2.4,None,
Przez najbliższe 5 minut proszę kolorować otrzymaną pustą kartkę. Naciśnij spację aby zacząć odmierzać czas,<<><<,,0,1,1,1,0,3,3,2,,,,,,,,,,,,,,,,,,,836.2953478650020,836.2953478650020,right,0,0.4615552320028660,,,,,,,,,,,,27,20,K,W,2023-01-13_12h42.04.376,Flanker,2022.2.4,None,
Przez najbliższe 5 minut proszę kolorować otrzymaną pustą kartkę. Naciśnij spację aby zacząć odmierzać czas,-->--,,0,1,1,1,0,4,4,5,,,,,,,,,,,,,,,,,,,837.7756981830030,837.7756981830030,right,0,0.3951736860035450,,,,,,,,,,,,27,20,K,W,2023-01-13_12h42.04.376,Flanker,2022.2.4,None,
Przez najbliższe 5 minut proszę kolorować otrzymaną pustą kartkę. Naciśnij spację aby zacząć odmierzać czas,<<<<<,,0,1,1,1,0,5,5,0,,,,,,,,,,,,,,,,,,,839.1754089960010,839.1754089960010,left,0,0.3823680030036490,,,,,,,,,,,,27,20,K,W,2023-01-13_12h42.04.376,Flanker,2022.2.4,None,
Przez najbliższe 5 minut proszę kolorować otrzymaną pustą kartkę. Naciśnij spację aby zacząć odmierzać czas,,<<><<,0,1,1,1,,,,,0,0,0,20,,,,,,,,,,,,,,,,,,,,840.5735311050080,848.5738710270090,848.5738710270090,right,0,0.5413196220033570,847.5778700870000,,,,,27,20,K,W,2023-01-13_12h42.04.376,Flanker,2022.2.4,None,
Przez najbliższe 5 minut proszę kolorować otrzymaną pustą kartkę. Naciśnij spację aby zacząć odmierzać czas,,--<--,0,1,1,1,,,,,0,1,1,49,,,,,,,,,,,,,,,,,,,,,850.1276632080120,850.1276632080120,left,0,0.3884769970027260,,,,,,27,20,K,W,2023-01-13_12h42.04.376,Flanker,2022.2.4,None,
Przez najbliższe 5 minut proszę kolorować otrzymaną pustą kartkę. Naciśnij spację aby zacząć odmierzać czas,,<<<<<,0,1,1,1,,,,,0,2,2,17,,,,,,,,,,,,,,,,,,,,,851.5280400220070,851.5280400220070,left,0,0.404944430993055,,,,,,27,20,K,W,2023-01-13_12h42.04.376,Flanker,2022.2.4,None,
Przez najbliższe 5 minut proszę kolorować otrzymaną pustą kartkę. Naciśnij spację aby zacząć odmierzać czas,,<<><<,0,1,1,1,,,,,0,3,3,24,,,,,,,,,,,,,,,,,,,,,852.9523824500070,852.9523824500070,right,0,0.47862342599546500,,,,,,27,20,K,W,2023-01-13_12h42.04.376,Flanker,2022.2.4,None,
Przez najbliższe 5 minut proszę kolorować otrzymaną pustą kartkę. Naciśnij spację aby zacząć odmierzać czas,,-->--,0,1,1,1,,,,,0,4,4,58,,,,,,,,,,,,,,,,,,,,,854.4330176140070,854.4330176140070,right,0,0.39486215700162600,,,,,,27,20,K,W,2023-01-13_12h42.04.376,Flanker,2022.2.4,None,
Przez najbliższe 5 minut proszę kolorować otrzymaną pustą kartkę. Naciśnij spację aby zacząć odmierzać czas,,<<><<,0,1,1,1,,,,,0,5,5,21,,,,,,,,,,,,,,,,,,,,,855.8396369340040,855.8396369340040,right,0,0.5243584669951820,,,,,,27,20,K,W,2023-01-13_12h42.04.376,Flanker,2022.2.4,None,
Przez najbliższe 5 minut proszę kolorować otrzymaną pustą kartkę. Naciśnij spację aby zacząć odmierzać czas,,>>>>>,0,1,1,1,,,,,0,6,6,2,,,,,,,,,,,,,,,,,,,,,857.3727102330010,857.3727102330010,right,0,0.3522157160041390,,,,,,27,20,K,W,2023-01-13_12h42.04.376,Flanker,2022.2.4,None,
Przez najbliższe 5 minut proszę kolorować otrzymaną pustą kartkę. Naciśnij spację aby zacząć odmierzać czas,,--<--,0,1,1,1,,,,,0,7,7,44,,,,,,,,,,,,,,,,,,,,,858.7282588630040,858.7282588630040,left,0,0.4115234229975610,,,,,,27,20,K,W,2023-01-13_12h42.04.376,Flanker,2022.2.4,None,
Przez najbliższe 5 minut proszę kolorować otrzymaną pustą kartkę. Naciśnij spację aby zacząć odmierzać czas,,<<><<,0,1,1,1,,,,,0,8,8,29,,,,,,,,,,,,,,,,,,,,,860.1434118690090,860.1434118690090,right,0,0.5124836479953960,,,,,,27,20,K,W,2023-01-13_12h42.04.376,Flanker,2022.2.4,None,
Przez najbliższe 5 minut proszę kolorować otrzymaną pustą kartkę. Naciśnij spację aby zacząć odmierzać czas,,<<><<,0,1,1,1,,,,,0,9,9,27,,,,,,,,,,,,,,,,,,,,,861.6561430250000,861.6561430250000,right,0,0.5186710639973170,,,,,,27,20,K,W,2023-01-13_12h42.04.376,Flanker,2022.2.4,None,
Przez najbliższe 5 minut proszę kolorować otrzymaną pustą kartkę. Naciśnij spację aby zacząć odmierzać czas,,--<--,0,1,1,1,,,,,0,10,10,46,,,,,,,,,,,,,,,,,,,,,863.1894301830030,863.1894301830030,left,0,0.39731682899582700,,,,,,27,20,K,W,2023-01-13_12h42.04.376,Flanker,2022.2.4,None,
Przez najbliższe 5 minut proszę kolorować otrzymaną pustą kartkę. Naciśnij spację aby zacząć odmierzać czas,,<<><<,0,1,1,1,,,,,0,11,11,25,,,,,,,,,,,,,,,,,,,,,864.5948236580010,864.5948236580010,right,0,0.45396810000238500,,,,,,27,20,K,W,2023-01-13_12h42.04.376,Flanker,2022.2.4,None,
Przez najbliższe 5 minut proszę kolorować otrzymaną pustą kartkę. Naciśnij spację aby zacząć odmierzać czas,,<<<<<,0,1,1,1,,,,,0,12,12,14,,,,,,,,,,,,,,,,,,,,,866.0620031960130,866.0620031960130,left,0,0.5035378390020920,,,,,,27,20,K,W,2023-01-13_12h42.04.376,Flanker,2022.2.4,None,
Przez najbliższe 5 minut proszę kolorować otrzymaną pustą kartkę. Naciśnij spację aby zacząć odmierzać czas,,>>>>>,0,1,1,1,,,,,0,13,13,3,,,,,,,,,,,,,,,,,,,,,867.5788869320100,867.5788869320100,right,0,0.3756418229895640,,,,,,27,20,K,W,2023-01-13_12h42.04.376,Flanker,2022.2.4,None,
Przez najbliższe 5 minut proszę kolorować otrzymaną pustą kartkę. Naciśnij spację aby zacząć odmierzać czas,,<<<<<,0,1,1,1,,,,,0,14,14,12,,,,,,,,,,,,,,,,,,,,,868.9608428920040,868.9608428920040,left,0,0.34080739300407000,,,,,,27,20,K,W,2023-01-13_12h42.04.376,Flanker,2022.2.4,None,
Przez najbliższe 5 minut proszę kolorować otrzymaną pustą kartkę. Naciśnij spację aby zacząć odmierzać czas,,>><>>,0,1,1,1,,,,,0,15,15,30,,,,,,,,,,,,,,,,,,,,,870.3173880040120,870.3173880040120,left,0,0.4822179769980720,,,,,,27,20,K,W,2023-01-13_12h42.04.376,Flanker,2022.2.4,None,
Przez najbliższe 5 minut proszę kolorować otrzymaną pustą kartkę. Naciśnij spację aby zacząć odmierzać czas,,--<--,0,1,1,1,,,,,0,16,16,40,,,,,,,,,,,,,,,,,,,,,871.8094640810010,871.8094640810010,left,0,0.4280876470002110,,,,,,27,20,K,W,2023-01-13_12h42.04.376,Flanker,2022.2.4,None,
Przez najbliższe 5 minut proszę kolorować otrzymaną pustą kartkę. Naciśnij spację aby zacząć odmierzać czas,,>>>>> ,0,1,1,1,,,,,0,17,17,5,,,,,,,,,,,,,,,,,,,,,873.245210567009,873.245210567009,right,0,0.3973029690096160,,,,,,27,20,K,W,2023-01-13_12h42.04.376,Flanker,2022.2.4,None,
Przez najbliższe 5 minut proszę kolorować otrzymaną pustą kartkę. Naciśnij spację aby zacząć odmierzać czas,,--<--,0,1,1,1,,,,,0,18,18,42,,,,,,,,,,,,,,,,,,,,,874.6447845990040,874.6447845990040,left,0,0.3707577029999810,,,,,,27,20,K,W,2023-01-13_12h42.04.376,Flanker,2022.2.4,None,
Przez najbliższe 5 minut proszę kolorować otrzymaną pustą kartkę. Naciśnij spację aby zacząć odmierzać czas,,>><>>,0,1,1,1,,,,,0,19,19,39,,,,,,,,,,,,,,,,,,,,,876.0284616100110,876.0284616100110,left,0,0.5481599910126530,,,,,,27,20,K,W,2023-01-13_12h42.04.376,Flanker,2022.2.4,None,
Przez najbliższe 5 minut proszę kolorować otrzymaną pustą kartkę. Naciśnij spację aby zacząć odmierzać czas,,-->--,0,1,1,1,,,,,0,20,20,50,,,,,,,,,,,,,,,,,,,,,877.5829999560080,877.5829999560080,right,0,0.5804309779923640,,,,,,27,20,K,W,2023-01-13_12h42.04.376,Flanker,2022.2.4,None,
Przez najbliższe 5 minut proszę kolorować otrzymaną pustą kartkę. Naciśnij spację aby zacząć odmierzać czas,,>><>>,0,1,1,1,,,,,0,21,21,35,,,,,,,,,,,,,,,,,,,,,879.1662408859990,879.1662408859990,left,0,0.4710991180036220,,,,,,27,20,K,W,2023-01-13_12h42.04.376,Flanker,2022.2.4,None,
Przez najbliższe 5 minut proszę kolorować otrzymaną pustą kartkę. Naciśnij spację aby zacząć odmierzać czas,,<<<<<,0,1,1,1,,,,,0,22,22,18,,,,,,,,,,,,,,,,,,,,,880.6560232510090,880.6560232510090,left,0,0.35533430401119400,,,,,,27,20,K,W,2023-01-13_12h42.04.376,Flanker,2022.2.4,None,
Przez najbliższe 5 minut proszę kolorować otrzymaną pustą kartkę. Naciśnij spację aby zacząć odmierzać czas,,>><>>,0,1,1,1,,,,,0,23,23,32,,,,,,,,,,,,,,,,,,,,,882.0164591040080,882.0164591040080,right,0,0.4339116299961460,,,,,,27,20,K,W,2023-01-13_12h42.04.376,Flanker,2022.2.4,None,
Przez najbliższe 5 minut proszę kolorować otrzymaną pustą kartkę. Naciśnij spację aby zacząć odmierzać czas,,>><>>,0,1,1,1,,,,,0,24,24,33,,,,,,,,,,,,,,,,,,,,,883.4501344280000,883.4501344280000,left,0,0.4790250130026830,,,,,,27,20,K,W,2023-01-13_12h42.04.376,Flanker,2022.2.4,None,
Przez najbliższe 5 minut proszę kolorować otrzymaną pustą kartkę. Naciśnij spację aby zacząć odmierzać czas,,-->--,0,1,1,1,,,,,0,25,25,52,,,,,,,,,,,,,,,,,,,,,884.9295054930120,884.9295054930120,right,0,0.4197944570041730,,,,,,27,20,K,W,2023-01-13_12h42.04.376,Flanker,2022.2.4,None,
Przez najbliższe 5 minut proszę kolorować otrzymaną pustą kartkę. Naciśnij spację aby zacząć odmierzać czas,,-->--,0,1,1,1,,,,,0,26,26,55,,,,,,,,,,,,,,,,,,,,,886.3587368940060,886.3587368940060,right,0,0.39437021799676600,,,,,,27,20,K,W,2023-01-13_12h42.04.376,Flanker,2022.2.4,None,
Przez najbliższe 5 minut proszę kolorować otrzymaną pustą kartkę. Naciśnij spację aby zacząć odmierzać czas,,>>>>>,0,1,1,1,,,,,0,27,27,7,,,,,,,,,,,,,,,,,,,,,887.7622426180020,887.7622426180020,right,0,0.429001733995392,,,,,,27,20,K,W,2023-01-13_12h42.04.376,Flanker,2022.2.4,None,
Przez najbliższe 5 minut proszę kolorować otrzymaną pustą kartkę. Naciśnij spację aby zacząć odmierzać czas,,>><>>,0,1,1,1,,,,,0,28,28,36,,,,,,,,,,,,,,,,,,,,,889.194931711012,889.194931711012,left,0,0.44415980999474400,,,,,,27,20,K,W,2023-01-13_12h42.04.376,Flanker,2022.2.4,None,
Przez najbliższe 5 minut proszę kolorować otrzymaną pustą kartkę. Naciśnij spację aby zacząć odmierzać czas,,--<--,0,1,1,1,,,,,0,29,29,41,,,,,,,,,,,,,,,,,,,,,890.6558359860060,890.6558359860060,left,0,0.34828308199939800,,,,,,27,20,K,W,2023-01-13_12h42.04.376,Flanker,2022.2.4,None,
Przez najbliższe 5 minut proszę kolorować otrzymaną pustą kartkę. Naciśnij spację aby zacząć odmierzać czas,,--<--,0,1,1,1,,,,,0,30,30,47,,,,,,,,,,,,,,,,,,,,,892.0059823300110,892.0059823300110,left,0,0.3870457689918110,,,,,,27,20,K,W,2023-01-13_12h42.04.376,Flanker,2022.2.4,None,
Przez najbliższe 5 minut proszę kolorować otrzymaną pustą kartkę. Naciśnij spację aby zacząć odmierzać czas,,<<><<,0,1,1,1,,,,,0,31,31,26,,,,,,,,,,,,,,,,,,,,,893.4056844000010,893.4056844000010,right,0,0.501330330997007,,,,,,27,20,K,W,2023-01-13_12h42.04.376,Flanker,2022.2.4,None,
Przez najbliższe 5 minut proszę kolorować otrzymaną pustą kartkę. Naciśnij spację aby zacząć odmierzać czas,,<<><<,0,1,1,1,,,,,0,32,32,28,,,,,,,,,,,,,,,,,,,,,894.9252945820040,894.9252945820040,right,0,0.5827646049874600,,,,,,27,20,K,W,2023-01-13_12h42.04.376,Flanker,2022.2.4,None,
Przez najbliższe 5 minut proszę kolorować otrzymaną pustą kartkę. Naciśnij spację aby zacząć odmierzać czas,,<<<<<,0,1,1,1,,,,,0,33,33,13,,,,,,,,,,,,,,,,,,,,,896.5116163520000,896.5116163520000,left,0,0.4483845139911860,,,,,,27,20,K,W,2023-01-13_12h42.04.376,Flanker,2022.2.4,None,
Przez najbliższe 5 minut proszę kolorować otrzymaną pustą kartkę. Naciśnij spację aby zacząć odmierzać czas,,-->--,0,1,1,1,,,,,0,34,34,57,,,,,,,,,,,,,,,,,,,,,897.9660232850000,897.9660232850000,right,0,0.38997414300683900,,,,,,27,20,K,W,2023-01-13_12h42.04.376,Flanker,2022.2.4,None,
Przez najbliższe 5 minut proszę kolorować otrzymaną pustą kartkę. Naciśnij spację aby zacząć odmierzać czas,,--<--,0,1,1,1,,,,,0,35,35,43,,,,,,,,,,,,,,,,,,,,,899.3721393420130,899.3721393420130,left,0,0.3398037680017300,,,,,,27,20,K,W,2023-01-13_12h42.04.376,Flanker,2022.2.4,None,
Przez najbliższe 5 minut proszę kolorować otrzymaną pustą kartkę. Naciśnij spację aby zacząć odmierzać czas,,>>>>>,0,1,1,1,,,,,0,36,36,6,,,,,,,,,,,,,,,,,,,,,900.7223621650050,900.7223621650050,right,0,0.36061836600129000,,,,,,27,20,K,W,2023-01-13_12h42.04.376,Flanker,2022.2.4,None,
Przez najbliższe 5 minut proszę kolorować otrzymaną pustą kartkę. Naciśnij spację aby zacząć odmierzać czas,,<<<<<,0,1,1,1,,,,,0,37,37,19,,,,,,,,,,,,,,,,,,,,,902.0914684630120,902.0914684630120,left,0,0.3624604570068190,,,,,,27,20,K,W,2023-01-13_12h42.04.376,Flanker,2022.2.4,None,
Przez najbliższe 5 minut proszę kolorować otrzymaną pustą kartkę. Naciśnij spację aby zacząć odmierzać czas,,>><>>,0,1,1,1,,,,,0,38,38,34,,,,,,,,,,,,,,,,,,,,,903.4595152190010,903.4595152190010,left,0,0.4964721069991360,,,,,,27,20,K,W,2023-01-13_12h42.04.376,Flanker,2022.2.4,None,
Przez najbliższe 5 minut proszę kolorować otrzymaną pustą kartkę. Naciśnij spację aby zacząć odmierzać czas,,<<<<<,0,1,1,1,,,,,0,39,39,15,,,,,,,,,,,,,,,,,,,,,904.962185796001,904.962185796001,left,0,0.5516873440064960,,,,,,27,20,K,W,2023-01-13_12h42.04.376,Flanker,2022.2.4,None,
Przez najbliższe 5 minut proszę kolorować otrzymaną pustą kartkę. Naciśnij spację aby zacząć odmierzać czas,,<<><<,0,1,1,1,,,,,0,40,40,22,,,,,,,,,,,,,,,,,,,,,906.5222886810080,906.5222886810080,right,0,0.48836292000487400,,,,,,27,20,K,W,2023-01-13_12h42.04.376,Flanker,2022.2.4,None,
Przez najbliższe 5 minut proszę kolorować otrzymaną pustą kartkę. Naciśnij spację aby zacząć odmierzać czas,,>>>>>,0,1,1,1,,,,,0,41,41,0,,,,,,,,,,,,,,,,,,,,,908.0211335860080,908.0211335860080,right,0,0.588355234998744,,,,,,27,20,K,W,2023-01-13_12h42.04.376,Flanker,2022.2.4,None,
Przez najbliższe 5 minut proszę kolorować otrzymaną pustą kartkę. Naciśnij spację aby zacząć odmierzać czas,,<<<<<,0,1,1,1,,,,,0,42,42,16,,,,,,,,,,,,,,,,,,,,,909.6158686380080,909.6158686380080,left,0,0.44278491199656900,,,,,,27,20,K,W,2023-01-13_12h42.04.376,Flanker,2022.2.4,None,
Przez najbliższe 5 minut proszę kolorować otrzymaną pustą kartkę. Naciśnij spację aby zacząć odmierzać czas,,-->--,0,1,1,1,,,,,0,43,43,54,,,,,,,,,,,,,,,,,,,,,911.066012980009,911.066012980009,right,0,0.3595943010004700,,,,,,27,20,K,W,2023-01-13_12h42.04.376,Flanker,2022.2.4,None,
Przez najbliższe 5 minut proszę kolorować otrzymaną pustą kartkę. Naciśnij spację aby zacząć odmierzać czas,,--<--,0,1,1,1,,,,,0,44,44,48,,,,,,,,,,,,,,,,,,,,,912.4325129670030,912.4325129670030,left,0,0.4271162709919740,,,,,,27,20,K,W,2023-01-13_12h42.04.376,Flanker,2022.2.4,None,
Przez najbliższe 5 minut proszę kolorować otrzymaną pustą kartkę. Naciśnij spację aby zacząć odmierzać czas,,>><>>,0,1,1,1,,,,,0,45,45,37,,,,,,,,,,,,,,,,,,,,,913.8789563220050,913.8789563220050,left,0,0.5306375270010900,,,,,,27,20,K,W,2023-01-13_12h42.04.376,Flanker,2022.2.4,None,
Przez najbliższe 5 minut proszę kolorować otrzymaną pustą kartkę. Naciśnij spację aby zacząć odmierzać czas,,-->--,0,1,1,1,,,,,0,46,46,56,,,,,,,,,,,,,,,,,,,,,915.4245826550030,915.4245826550030,right,0,0.4140707970072980,,,,,,27,20,K,W,2023-01-13_12h42.04.376,Flanker,2022.2.4,None,
Przez najbliższe 5 minut proszę kolorować otrzymaną pustą kartkę. Naciśnij spację aby zacząć odmierzać czas,,<<<<<,0,1,1,1,,,,,0,47,47,11,,,,,,,,,,,,,,,,,,,,,916.844631386004,916.844631386004,left,0,0.444860379997408,,,,,,27,20,K,W,2023-01-13_12h42.04.376,Flanker,2022.2.4,None,
Przez najbliższe 5 minut proszę kolorować otrzymaną pustą kartkę. Naciśnij spację aby zacząć odmierzać czas,,>>>>>,0,1,1,1,,,,,0,48,48,8,,,,,,,,,,,,,,,,,,,,,918.305053315009,918.305053315009,right,0,0.3403679899929560,,,,,,27,20,K,W,2023-01-13_12h42.04.376,Flanker,2022.2.4,None,
Przez najbliższe 5 minut proszę kolorować otrzymaną pustą kartkę. Naciśnij spację aby zacząć odmierzać czas,,>>>>>,0,1,1,1,,,,,0,49,49,9,,,,,,,,,,,,,,,,,,,,,919.6553411260100,919.6553411260100,right,0,0.3250413540081350,,,,,,27,20,K,W,2023-01-13_12h42.04.376,Flanker,2022.2.4,None,
Przez najbliższe 5 minut proszę kolorować otrzymaną pustą kartkę. Naciśnij spację aby zacząć odmierzać czas,,--<--,0,1,1,1,,,,,0,50,50,45,,,,,,,,,,,,,,,,,,,,,920.9830862140080,920.9830862140080,left,0,0.3650977600045740,,,,,,27,20,K,W,2023-01-13_12h42.04.376,Flanker,2022.2.4,None,
Przez najbliższe 5 minut proszę kolorować otrzymaną pustą kartkę. Naciśnij spację aby zacząć odmierzać czas,,-->--,0,1,1,1,,,,,0,51,51,51,,,,,,,,,,,,,,,,,,,,,922.361201044012,922.361201044012,right,0,0.3510454019997270,,,,,,27,20,K,W,2023-01-13_12h42.04.376,Flanker,2022.2.4,None,
Przez najbliższe 5 minut proszę kolorować otrzymaną pustą kartkę. Naciśnij spację aby zacząć odmierzać czas,,-->--,0,1,1,1,,,,,0,52,52,53,,,,,,,,,,,,,,,,,,,,,923.7219253540100,923.7219253540100,right,0,0.4262851249950470,,,,,,27,20,K,W,2023-01-13_12h42.04.376,Flanker,2022.2.4,None,
Przez najbliższe 5 minut proszę kolorować otrzymaną pustą kartkę. Naciśnij spację aby zacząć odmierzać czas,,>>>>>,0,1,1,1,,,,,0,53,53,1,,,,,,,,,,,,,,,,,,,,,925.1729345240020,925.1729345240020,right,0,0.3783516030089230,,,,,,27,20,K,W,2023-01-13_12h42.04.376,Flanker,2022.2.4,None,
Przez najbliższe 5 minut proszę kolorować otrzymaną pustą kartkę. Naciśnij spację aby zacząć odmierzać czas,,>><>>,0,1,1,1,,,,,0,54,54,31,,,,,,,,,,,,,,,,,,,,,926.5552056279990,926.5552056279990,left,0,0.4450356329907660,,,,,,27,20,K,W,2023-01-13_12h42.04.376,Flanker,2022.2.4,None,
Przez najbliższe 5 minut proszę kolorować otrzymaną pustą kartkę. Naciśnij spację aby zacząć odmierzać czas,,>><>>,0,1,1,1,,,,,0,55,55,38,,,,,,,,,,,,,,,,,,,,,928.0063297020100,928.0063297020100,left,0,0.4249717589991630,,,,,,27,20,K,W,2023-01-13_12h42.04.376,Flanker,2022.2.4,None,
Przez najbliższe 5 minut proszę kolorować otrzymaną pustą kartkę. Naciśnij spację aby zacząć odmierzać czas,,>>>>>,0,1,1,1,,,,,0,56,56,4,,,,,,,,,,,,,,,,,,,,,929.4448061460130,929.4448061460130,right,0,0.352313987998059,,,,,,27,20,K,W,2023-01-13_12h42.04.376,Flanker,2022.2.4,None,
Przez najbliższe 5 minut proszę kolorować otrzymaną pustą kartkę. Naciśnij spację aby zacząć odmierzać czas,,-->--,0,1,1,1,,,,,0,57,57,59,,,,,,,,,,,,,,,,,,,,,930.8003394000120,930.8003394000120,right,0,0.30874367599608400,,,,,,27,20,K,W,2023-01-13_12h42.04.376,Flanker,2022.2.4,None,
Przez najbliższe 5 minut proszę kolorować otrzymaną pustą kartkę. Naciśnij spację aby zacząć odmierzać czas,,<<><<,0,1,1,1,,,,,0,58,58,23,,,,,,,,,,,,,,,,,,,,,932.1154766260010,932.1154766260010,left,0,0.3586590850027280,,,,,,27,20,K,W,2023-01-13_12h42.04.376,Flanker,2022.2.4,None,
Przez najbliższe 5 minut proszę kolorować otrzymaną pustą kartkę. Naciśnij spację aby zacząć odmierzać czas,,<<<<<,0,1,1,1,,,,,0,59,59,10,,,,,,,,,,,,,,,,,,,,,933.4807932060070,933.4807932060070,left,0,0.3953778839932060,,,,,,27,20,K,W,2023-01-13_12h42.04.376,Flanker,2022.2.4,None,
Przez najbliższe 5 minut proszę kolorować otrzymaną pustą kartkę. Naciśnij spację aby zacząć odmierzać czas,,,0,1,1,1,,,,,,,,,,,,,,,,,,,,,,,,,,,,,,,,,,,,,,,27,20,K,W,2023-01-13_12h42.04.376,Flanker,2022.2.4,None,
,,,,,,,,,,,,,,,,,,,,,,,,,,,,,,,,,,,,,,,,,934.8804024640120,934.8804024640120,space,1.9825767629954500,27,20,K,W,2023-01-13_12h42.04.376,Flanker,2022.2.4,None,