kolorowanka,Example,Stimuli,proby.thisRepN,proby.thisTrialN,proby.thisN,proby.thisIndex,zapoznanie.thisRepN,zapoznanie.thisTrialN,zapoznanie.thisN,zapoznanie.thisIndex,Warunki.thisRepN,Warunki.thisTrialN,Warunki.thisN,Warunki.thisIndex,Intro.started,Intro_resp.started,Intro_resp.keys,Intro_resp.rt,Kolorowanie1.started,starttt.started,starttt.keys,starttt.rt,koloruj.started,Instruction.started,key_resp.started,key_resp.keys,key_resp.rt,Wyjasnienie.started,text.started,odp_przyk.started,odp_przyk.keys,odp_przyk.corr,odp_przyk.rt,zapo.started,Zadanie.started,Odp.started,Odp.keys,Odp.corr,Odp.rt,zapo.stopped,thanks.started,KONIEC.started,KONIEC.keys,KONIEC.rt,participant,Wiek (w latach),Płeć (K/M),Entropia,date,expName,psychopyVersion,frameRate,
,,,,,,,,,,,,,,,22.345325289992600,24.3193264510046,space,13.888687506012500,,,,,,,,,,,,,,,,,,,,,,,,,,,28,20,K,W,2023-01-13_12h57.58.250,Flanker,2022.2.4,None,
Przez najbliższe 5 minut proszę kolorować otrzymaną pustą kartkę. Naciśnij spację aby zacząć odmierzać czas,>>>>>,,0,0,0,1,0,0,0,1,,,,,,,,,38.25793358100050,39.227984222001400,space,12.482876859008700,51.738773831995800,351.7322872450020,353.72260786600200,space,29.116056006998400,382.8696387289970,391.85569988400700,391.85569988400700,right,0,0.9536877979990100,,,,,,,,,,,,28,20,K,W,2023-01-13_12h57.58.250,Flanker,2022.2.4,None,
Przez najbliższe 5 minut proszę kolorować otrzymaną pustą kartkę. Naciśnij spację aby zacząć odmierzać czas,<<><<,,0,0,0,1,0,1,1,2,,,,,,,,,,,,,,,,,,,393.82119457400400,393.82119457400400,right,0,1.3781423609907500,,,,,,,,,,,,28,20,K,W,2023-01-13_12h57.58.250,Flanker,2022.2.4,None,
Przez najbliższe 5 minut proszę kolorować otrzymaną pustą kartkę. Naciśnij spację aby zacząć odmierzać czas,<<<<<,,0,0,0,1,0,2,2,0,,,,,,,,,,,,,,,,,,,396.21378311599300,396.21378311599300,left,0,0.6555425149999790,,,,,,,,,,,,28,20,K,W,2023-01-13_12h57.58.250,Flanker,2022.2.4,None,
Przez najbliższe 5 minut proszę kolorować otrzymaną pustą kartkę. Naciśnij spację aby zacząć odmierzać czas,>><>>,,0,0,0,1,0,3,3,3,,,,,,,,,,,,,,,,,,,397.87598351200000,397.87598351200000,left,0,1.0894306550035300,,,,,,,,,,,,28,20,K,W,2023-01-13_12h57.58.250,Flanker,2022.2.4,None,
Przez najbliższe 5 minut proszę kolorować otrzymaną pustą kartkę. Naciśnij spację aby zacząć odmierzać czas,-->--,,0,0,0,1,0,4,4,5,,,,,,,,,,,,,,,,,,,399.9802939939980,399.9802939939980,right,0,0.5920768539945130,,,,,,,,,,,,28,20,K,W,2023-01-13_12h57.58.250,Flanker,2022.2.4,None,
Przez najbliższe 5 minut proszę kolorować otrzymaną pustą kartkę. Naciśnij spację aby zacząć odmierzać czas,--<--,,0,0,0,1,0,5,5,4,,,,,,,,,,,,,,,,,,,401.5803623160030,401.5803623160030,left,0,0.5149679229944010,,,,,,,,,,,,28,20,K,W,2023-01-13_12h57.58.250,Flanker,2022.2.4,None,
Przez najbliższe 5 minut proszę kolorować otrzymaną pustą kartkę. Naciśnij spację aby zacząć odmierzać czas,,<<><<,0,0,0,1,,,,,0,0,0,27,,,,,,,,,,,,,,,,,,,,403.1107867700050,411.1208397580050,411.1208397580050,right,0,1.0035512019967400,410.12640288399400,,,,,28,20,K,W,2023-01-13_12h57.58.250,Flanker,2022.2.4,None,
Przez najbliższe 5 minut proszę kolorować otrzymaną pustą kartkę. Naciśnij spację aby zacząć odmierzać czas,,>>>>>,0,0,0,1,,,,,0,1,1,8,,,,,,,,,,,,,,,,,,,,,413.1376027149960,413.1376027149960,right,0,0.3752188000071330,,,,,,28,20,K,W,2023-01-13_12h57.58.250,Flanker,2022.2.4,None,
Przez najbliższe 5 minut proszę kolorować otrzymaną pustą kartkę. Naciśnij spację aby zacząć odmierzać czas,,-->--,0,0,0,1,,,,,0,2,2,51,,,,,,,,,,,,,,,,,,,,,414.51593480100600,414.51593480100600,right,0,0.40702633099863300,,,,,,28,20,K,W,2023-01-13_12h57.58.250,Flanker,2022.2.4,None,
Przez najbliższe 5 minut proszę kolorować otrzymaną pustą kartkę. Naciśnij spację aby zacząć odmierzać czas,,<<><<,0,0,0,1,,,,,0,3,3,28,,,,,,,,,,,,,,,,,,,,,415.9301634500010,415.9301634500010,right,0,0.6229041410115320,,,,,,28,20,K,W,2023-01-13_12h57.58.250,Flanker,2022.2.4,None,
Przez najbliższe 5 minut proszę kolorować otrzymaną pustą kartkę. Naciśnij spację aby zacząć odmierzać czas,,--<--,0,0,0,1,,,,,0,4,4,41,,,,,,,,,,,,,,,,,,,,,417.5696427869990,417.5696427869990,left,0,0.3621953199908600,,,,,,28,20,K,W,2023-01-13_12h57.58.250,Flanker,2022.2.4,None,
Przez najbliższe 5 minut proszę kolorować otrzymaną pustą kartkę. Naciśnij spację aby zacząć odmierzać czas,,>>>>>,0,0,0,1,,,,,0,5,5,0,,,,,,,,,,,,,,,,,,,,,418.94344855699500,418.94344855699500,right,0,0.4184123089944480,,,,,,28,20,K,W,2023-01-13_12h57.58.250,Flanker,2022.2.4,None,
Przez najbliższe 5 minut proszę kolorować otrzymaną pustą kartkę. Naciśnij spację aby zacząć odmierzać czas,,>><>>,0,0,0,1,,,,,0,6,6,32,,,,,,,,,,,,,,,,,,,,,420.380214446006,420.380214446006,left,0,0.5945722599863080,,,,,,28,20,K,W,2023-01-13_12h57.58.250,Flanker,2022.2.4,None,
Przez najbliższe 5 minut proszę kolorować otrzymaną pustą kartkę. Naciśnij spację aby zacząć odmierzać czas,,<<><<,0,0,0,1,,,,,0,7,7,20,,,,,,,,,,,,,,,,,,,,,421.985546306998,421.985546306998,right,0,0.7270561580080540,,,,,,28,20,K,W,2023-01-13_12h57.58.250,Flanker,2022.2.4,None,
Przez najbliższe 5 minut proszę kolorować otrzymaną pustą kartkę. Naciśnij spację aby zacząć odmierzać czas,,<<<<<,0,0,0,1,,,,,0,8,8,12,,,,,,,,,,,,,,,,,,,,,423.72348741399800,423.72348741399800,left,0,0.3984075699991080,,,,,,28,20,K,W,2023-01-13_12h57.58.250,Flanker,2022.2.4,None,
Przez najbliższe 5 minut proszę kolorować otrzymaną pustą kartkę. Naciśnij spację aby zacząć odmierzać czas,,<<<<<,0,0,0,1,,,,,0,9,9,14,,,,,,,,,,,,,,,,,,,,,425.1304487830060,425.1304487830060,left,0,0.4272229009948210,,,,,,28,20,K,W,2023-01-13_12h57.58.250,Flanker,2022.2.4,None,
Przez najbliższe 5 minut proszę kolorować otrzymaną pustą kartkę. Naciśnij spację aby zacząć odmierzać czas,,>>>>>,0,0,0,1,,,,,0,10,10,2,,,,,,,,,,,,,,,,,,,,,426.57245949500100,426.57245949500100,right,0,0.5082702179934130,,,,,,28,20,K,W,2023-01-13_12h57.58.250,Flanker,2022.2.4,None,
Przez najbliższe 5 minut proszę kolorować otrzymaną pustą kartkę. Naciśnij spację aby zacząć odmierzać czas,,--<--,0,0,0,1,,,,,0,11,11,45,,,,,,,,,,,,,,,,,,,,,428.08889401800100,428.08889401800100,left,0,0.3627453700028130,,,,,,28,20,K,W,2023-01-13_12h57.58.250,Flanker,2022.2.4,None,
Przez najbliższe 5 minut proszę kolorować otrzymaną pustą kartkę. Naciśnij spację aby zacząć odmierzać czas,,>>>>>,0,0,0,1,,,,,0,12,12,4,,,,,,,,,,,,,,,,,,,,,429.4584288210030,429.4584288210030,right,0,0.4631298250023970,,,,,,28,20,K,W,2023-01-13_12h57.58.250,Flanker,2022.2.4,None,
Przez najbliższe 5 minut proszę kolorować otrzymaną pustą kartkę. Naciśnij spację aby zacząć odmierzać czas,,<<<<<,0,0,0,1,,,,,0,13,13,11,,,,,,,,,,,,,,,,,,,,,430.9255399440010,430.9255399440010,left,0,0.33687662400188900,,,,,,28,20,K,W,2023-01-13_12h57.58.250,Flanker,2022.2.4,None,
Przez najbliższe 5 minut proszę kolorować otrzymaną pustą kartkę. Naciśnij spację aby zacząć odmierzać czas,,<<><<,0,0,0,1,,,,,0,14,14,25,,,,,,,,,,,,,,,,,,,,,432.27511912499900,432.27511912499900,right,0,0.6783613090083240,,,,,,28,20,K,W,2023-01-13_12h57.58.250,Flanker,2022.2.4,None,
Przez najbliższe 5 minut proszę kolorować otrzymaną pustą kartkę. Naciśnij spację aby zacząć odmierzać czas,,>><>>,0,0,0,1,,,,,0,15,15,33,,,,,,,,,,,,,,,,,,,,,433.96320044400600,433.96320044400600,left,0,0.5093428889958890,,,,,,28,20,K,W,2023-01-13_12h57.58.250,Flanker,2022.2.4,None,
Przez najbliższe 5 minut proszę kolorować otrzymaną pustą kartkę. Naciśnij spację aby zacząć odmierzać czas,,-->--,0,0,0,1,,,,,0,16,16,55,,,,,,,,,,,,,,,,,,,,,435.48838502900600,435.48838502900600,right,0,0.5461316790024280,,,,,,28,20,K,W,2023-01-13_12h57.58.250,Flanker,2022.2.4,None,
Przez najbliższe 5 minut proszę kolorować otrzymaną pustą kartkę. Naciśnij spację aby zacząć odmierzać czas,,-->--,0,0,0,1,,,,,0,17,17,58,,,,,,,,,,,,,,,,,,,,,437.03757483699900,437.03757483699900,right,0,0.43498333300522100,,,,,,28,20,K,W,2023-01-13_12h57.58.250,Flanker,2022.2.4,None,
Przez najbliższe 5 minut proszę kolorować otrzymaną pustą kartkę. Naciśnij spację aby zacząć odmierzać czas,,>><>>,0,0,0,1,,,,,0,18,18,38,,,,,,,,,,,,,,,,,,,,,438.48040418699400,438.48040418699400,left,0,0.43512274100794500,,,,,,28,20,K,W,2023-01-13_12h57.58.250,Flanker,2022.2.4,None,
Przez najbliższe 5 minut proszę kolorować otrzymaną pustą kartkę. Naciśnij spację aby zacząć odmierzać czas,,>><>>,0,0,0,1,,,,,0,19,19,35,,,,,,,,,,,,,,,,,,,,,439.9195896489980,439.9195896489980,left,0,0.4298553010012260,,,,,,28,20,K,W,2023-01-13_12h57.58.250,Flanker,2022.2.4,None,
Przez najbliższe 5 minut proszę kolorować otrzymaną pustą kartkę. Naciśnij spację aby zacząć odmierzać czas,,<<<<<,0,0,0,1,,,,,0,20,20,13,,,,,,,,,,,,,,,,,,,,,441.36511646299900,441.36511646299900,left,0,0.41332990200317,,,,,,28,20,K,W,2023-01-13_12h57.58.250,Flanker,2022.2.4,None,
Przez najbliższe 5 minut proszę kolorować otrzymaną pustą kartkę. Naciśnij spację aby zacząć odmierzać czas,,>><>>,0,0,0,1,,,,,0,21,21,36,,,,,,,,,,,,,,,,,,,,,442.7873146140050,442.7873146140050,left,0,0.44204940099734800,,,,,,28,20,K,W,2023-01-13_12h57.58.250,Flanker,2022.2.4,None,
Przez najbliższe 5 minut proszę kolorować otrzymaną pustą kartkę. Naciśnij spację aby zacząć odmierzać czas,,--<--,0,0,0,1,,,,,0,22,22,49,,,,,,,,,,,,,,,,,,,,,444.23545999500500,444.23545999500500,left,0,0.2806999349995750,,,,,,28,20,K,W,2023-01-13_12h57.58.250,Flanker,2022.2.4,None,
Przez najbliższe 5 minut proszę kolorować otrzymaną pustą kartkę. Naciśnij spację aby zacząć odmierzać czas,,>><>>,0,0,0,1,,,,,0,23,23,34,,,,,,,,,,,,,,,,,,,,,445.535277338,445.535277338,left,0,0.46797746600350400,,,,,,28,20,K,W,2023-01-13_12h57.58.250,Flanker,2022.2.4,None,
Przez najbliższe 5 minut proszę kolorować otrzymaną pustą kartkę. Naciśnij spację aby zacząć odmierzać czas,,>>>>>,0,0,0,1,,,,,0,24,24,3,,,,,,,,,,,,,,,,,,,,,447.01434269099300,447.01434269099300,right,0,0.39784233301179500,,,,,,28,20,K,W,2023-01-13_12h57.58.250,Flanker,2022.2.4,None,
Przez najbliższe 5 minut proszę kolorować otrzymaną pustą kartkę. Naciśnij spację aby zacząć odmierzać czas,,-->--,0,0,0,1,,,,,0,25,25,54,,,,,,,,,,,,,,,,,,,,,448.429802425002,448.429802425002,right,0,0.4315212219953540,,,,,,28,20,K,W,2023-01-13_12h57.58.250,Flanker,2022.2.4,None,
Przez najbliższe 5 minut proszę kolorować otrzymaną pustą kartkę. Naciśnij spację aby zacząć odmierzać czas,,>><>>,0,0,0,1,,,,,0,26,26,39,,,,,,,,,,,,,,,,,,,,,449.8650687759950,449.8650687759950,left,0,0.3931846019986550,,,,,,28,20,K,W,2023-01-13_12h57.58.250,Flanker,2022.2.4,None,
Przez najbliższe 5 minut proszę kolorować otrzymaną pustą kartkę. Naciśnij spację aby zacząć odmierzać czas,,>>>>> ,0,0,0,1,,,,,0,27,27,5,,,,,,,,,,,,,,,,,,,,,451.27533043299600,451.27533043299600,right,0,0.44684364800923500,,,,,,28,20,K,W,2023-01-13_12h57.58.250,Flanker,2022.2.4,None,
Przez najbliższe 5 minut proszę kolorować otrzymaną pustą kartkę. Naciśnij spację aby zacząć odmierzać czas,,<<<<<,0,0,0,1,,,,,0,28,28,15,,,,,,,,,,,,,,,,,,,,,452.7361291349950,452.7361291349950,left,0,0.42302080400986600,,,,,,28,20,K,W,2023-01-13_12h57.58.250,Flanker,2022.2.4,None,
Przez najbliższe 5 minut proszę kolorować otrzymaną pustą kartkę. Naciśnij spację aby zacząć odmierzać czas,,-->--,0,0,0,1,,,,,0,29,29,56,,,,,,,,,,,,,,,,,,,,,454.1692524399990,454.1692524399990,right,0,0.42973152399645200,,,,,,28,20,K,W,2023-01-13_12h57.58.250,Flanker,2022.2.4,None,
Przez najbliższe 5 minut proszę kolorować otrzymaną pustą kartkę. Naciśnij spację aby zacząć odmierzać czas,,<<><<,0,0,0,1,,,,,0,30,30,26,,,,,,,,,,,,,,,,,,,,,455.61297525999500,455.61297525999500,left,0,0.34618842900090400,,,,,,28,20,K,W,2023-01-13_12h57.58.250,Flanker,2022.2.4,None,
Przez najbliższe 5 minut proszę kolorować otrzymaną pustą kartkę. Naciśnij spację aby zacząć odmierzać czas,,--<--,0,0,0,1,,,,,0,31,31,43,,,,,,,,,,,,,,,,,,,,,456.9746611760060,456.9746611760060,left,0,0.565296764994855,,,,,,28,20,K,W,2023-01-13_12h57.58.250,Flanker,2022.2.4,None,
Przez najbliższe 5 minut proszę kolorować otrzymaną pustą kartkę. Naciśnij spację aby zacząć odmierzać czas,,-->--,0,0,0,1,,,,,0,32,32,52,,,,,,,,,,,,,,,,,,,,,458.55255850800300,458.55255850800300,right,0,0.41557734199159300,,,,,,28,20,K,W,2023-01-13_12h57.58.250,Flanker,2022.2.4,None,
Przez najbliższe 5 minut proszę kolorować otrzymaną pustą kartkę. Naciśnij spację aby zacząć odmierzać czas,,<<><<,0,0,0,1,,,,,0,33,33,24,,,,,,,,,,,,,,,,,,,,,459.97561595999300,459.97561595999300,right,0,0.4933520659978970,,,,,,28,20,K,W,2023-01-13_12h57.58.250,Flanker,2022.2.4,None,
Przez najbliższe 5 minut proszę kolorować otrzymaną pustą kartkę. Naciśnij spację aby zacząć odmierzać czas,,<<<<<,0,0,0,1,,,,,0,34,34,19,,,,,,,,,,,,,,,,,,,,,461.4796451690050,461.4796451690050,left,0,0.4022867110033990,,,,,,28,20,K,W,2023-01-13_12h57.58.250,Flanker,2022.2.4,None,
Przez najbliższe 5 minut proszę kolorować otrzymaną pustą kartkę. Naciśnij spację aby zacząć odmierzać czas,,-->--,0,0,0,1,,,,,0,35,35,50,,,,,,,,,,,,,,,,,,,,,462.8968689119940,462.8968689119940,right,0,0.4211660349974410,,,,,,28,20,K,W,2023-01-13_12h57.58.250,Flanker,2022.2.4,None,
Przez najbliższe 5 minut proszę kolorować otrzymaną pustą kartkę. Naciśnij spację aby zacząć odmierzać czas,,<<<<<,0,0,0,1,,,,,0,36,36,17,,,,,,,,,,,,,,,,,,,,,464.3293227440010,464.3293227440010,left,0,0.37554836900380900,,,,,,28,20,K,W,2023-01-13_12h57.58.250,Flanker,2022.2.4,None,
Przez najbliższe 5 minut proszę kolorować otrzymaną pustą kartkę. Naciśnij spację aby zacząć odmierzać czas,,>><>>,0,0,0,1,,,,,0,37,37,31,,,,,,,,,,,,,,,,,,,,,465.71235332399400,465.71235332399400,left,0,0.4445202860079010,,,,,,28,20,K,W,2023-01-13_12h57.58.250,Flanker,2022.2.4,None,
Przez najbliższe 5 minut proszę kolorować otrzymaną pustą kartkę. Naciśnij spację aby zacząć odmierzać czas,,<<<<<,0,0,0,1,,,,,0,38,38,18,,,,,,,,,,,,,,,,,,,,,467.1723928050050,467.1723928050050,left,0,0.46645617300237100,,,,,,28,20,K,W,2023-01-13_12h57.58.250,Flanker,2022.2.4,None,
Przez najbliższe 5 minut proszę kolorować otrzymaną pustą kartkę. Naciśnij spację aby zacząć odmierzać czas,,<<><<,0,0,0,1,,,,,0,39,39,21,,,,,,,,,,,,,,,,,,,,,468.64611364099300,468.64611364099300,right,0,0.4575900880008700,,,,,,28,20,K,W,2023-01-13_12h57.58.250,Flanker,2022.2.4,None,
Przez najbliższe 5 minut proszę kolorować otrzymaną pustą kartkę. Naciśnij spację aby zacząć odmierzać czas,,<<<<<,0,0,0,1,,,,,0,40,40,16,,,,,,,,,,,,,,,,,,,,,470.1198362260040,470.1198362260040,left,0,0.32815308900899300,,,,,,28,20,K,W,2023-01-13_12h57.58.250,Flanker,2022.2.4,None,
Przez najbliższe 5 minut proszę kolorować otrzymaną pustą kartkę. Naciśnij spację aby zacząć odmierzać czas,,<<><<,0,0,0,1,,,,,0,41,41,22,,,,,,,,,,,,,,,,,,,,,471.452963246993,471.452963246993,right,0,0.5478091410041090,,,,,,28,20,K,W,2023-01-13_12h57.58.250,Flanker,2022.2.4,None,
Przez najbliższe 5 minut proszę kolorować otrzymaną pustą kartkę. Naciśnij spację aby zacząć odmierzać czas,,-->--,0,0,0,1,,,,,0,42,42,59,,,,,,,,,,,,,,,,,,,,,473.0075673639950,473.0075673639950,right,0,0.42606248600350200,,,,,,28,20,K,W,2023-01-13_12h57.58.250,Flanker,2022.2.4,None,
Przez najbliższe 5 minut proszę kolorować otrzymaną pustą kartkę. Naciśnij spację aby zacząć odmierzać czas,,--<--,0,0,0,1,,,,,0,43,43,42,,,,,,,,,,,,,,,,,,,,,474.4539593630030,474.4539593630030,left,0,0.3817540279997050,,,,,,28,20,K,W,2023-01-13_12h57.58.250,Flanker,2022.2.4,None,
Przez najbliższe 5 minut proszę kolorować otrzymaną pustą kartkę. Naciśnij spację aby zacząć odmierzać czas,,--<--,0,0,0,1,,,,,0,44,44,46,,,,,,,,,,,,,,,,,,,,,475.8456207989950,475.8456207989950,left,0,0.3171101209882180,,,,,,28,20,K,W,2023-01-13_12h57.58.250,Flanker,2022.2.4,None,
Przez najbliższe 5 minut proszę kolorować otrzymaną pustą kartkę. Naciśnij spację aby zacząć odmierzać czas,,>><>>,0,0,0,1,,,,,0,45,45,30,,,,,,,,,,,,,,,,,,,,,477.17530444699500,477.17530444699500,left,0,0.5891877419926460,,,,,,28,20,K,W,2023-01-13_12h57.58.250,Flanker,2022.2.4,None,
Przez najbliższe 5 minut proszę kolorować otrzymaną pustą kartkę. Naciśnij spację aby zacząć odmierzać czas,,>>>>>,0,0,0,1,,,,,0,46,46,7,,,,,,,,,,,,,,,,,,,,,478.7716512949990,478.7716512949990,right,0,0.41107819699391300,,,,,,28,20,K,W,2023-01-13_12h57.58.250,Flanker,2022.2.4,None,
Przez najbliższe 5 minut proszę kolorować otrzymaną pustą kartkę. Naciśnij spację aby zacząć odmierzać czas,,<<><<,0,0,0,1,,,,,0,47,47,23,,,,,,,,,,,,,,,,,,,,,480.20217903399300,480.20217903399300,right,0,0.6104552610049720,,,,,,28,20,K,W,2023-01-13_12h57.58.250,Flanker,2022.2.4,None,
Przez najbliższe 5 minut proszę kolorować otrzymaną pustą kartkę. Naciśnij spację aby zacząć odmierzać czas,,>>>>>,0,0,0,1,,,,,0,48,48,9,,,,,,,,,,,,,,,,,,,,,481.8190815580020,481.8190815580020,right,0,0.4072795550018780,,,,,,28,20,K,W,2023-01-13_12h57.58.250,Flanker,2022.2.4,None,
Przez najbliższe 5 minut proszę kolorować otrzymaną pustą kartkę. Naciśnij spację aby zacząć odmierzać czas,,--<--,0,0,0,1,,,,,0,49,49,40,,,,,,,,,,,,,,,,,,,,,483.24395964200100,483.24395964200100,left,0,0.3983481019968170,,,,,,28,20,K,W,2023-01-13_12h57.58.250,Flanker,2022.2.4,None,
Przez najbliższe 5 minut proszę kolorować otrzymaną pustą kartkę. Naciśnij spację aby zacząć odmierzać czas,,>>>>>,0,0,0,1,,,,,0,50,50,1,,,,,,,,,,,,,,,,,,,,,484.6513231879940,484.6513231879940,right,0,0.4300323200004640,,,,,,28,20,K,W,2023-01-13_12h57.58.250,Flanker,2022.2.4,None,
Przez najbliższe 5 minut proszę kolorować otrzymaną pustą kartkę. Naciśnij spację aby zacząć odmierzać czas,,-->--,0,0,0,1,,,,,0,51,51,53,,,,,,,,,,,,,,,,,,,,,486.10485204399400,486.10485204399400,right,0,0.3795867900043960,,,,,,28,20,K,W,2023-01-13_12h57.58.250,Flanker,2022.2.4,None,
Przez najbliższe 5 minut proszę kolorować otrzymaną pustą kartkę. Naciśnij spację aby zacząć odmierzać czas,,--<--,0,0,0,1,,,,,0,52,52,47,,,,,,,,,,,,,,,,,,,,,487.49040403199600,487.49040403199600,left,0,0.3750433509994760,,,,,,28,20,K,W,2023-01-13_12h57.58.250,Flanker,2022.2.4,None,
Przez najbliższe 5 minut proszę kolorować otrzymaną pustą kartkę. Naciśnij spację aby zacząć odmierzać czas,,<<<<<,0,0,0,1,,,,,0,53,53,10,,,,,,,,,,,,,,,,,,,,,488.8806163470000,488.8806163470000,left,0,0.35562312400725200,,,,,,28,20,K,W,2023-01-13_12h57.58.250,Flanker,2022.2.4,None,
Przez najbliższe 5 minut proszę kolorować otrzymaną pustą kartkę. Naciśnij spację aby zacząć odmierzać czas,,<<><<,0,0,0,1,,,,,0,54,54,29,,,,,,,,,,,,,,,,,,,,,490.2520802920040,490.2520802920040,right,0,0.5372478249919370,,,,,,28,20,K,W,2023-01-13_12h57.58.250,Flanker,2022.2.4,None,
Przez najbliższe 5 minut proszę kolorować otrzymaną pustą kartkę. Naciśnij spację aby zacząć odmierzać czas,,>>>>>,0,0,0,1,,,,,0,55,55,6,,,,,,,,,,,,,,,,,,,,,491.79627591199800,491.79627591199800,right,0,0.5310234099888480,,,,,,28,20,K,W,2023-01-13_12h57.58.250,Flanker,2022.2.4,None,
Przez najbliższe 5 minut proszę kolorować otrzymaną pustą kartkę. Naciśnij spację aby zacząć odmierzać czas,,-->--,0,0,0,1,,,,,0,56,56,57,,,,,,,,,,,,,,,,,,,,,493.345543110001,493.345543110001,right,0,0.4086519279953790,,,,,,28,20,K,W,2023-01-13_12h57.58.250,Flanker,2022.2.4,None,
Przez najbliższe 5 minut proszę kolorować otrzymaną pustą kartkę. Naciśnij spację aby zacząć odmierzać czas,,--<--,0,0,0,1,,,,,0,57,57,44,,,,,,,,,,,,,,,,,,,,,494.76289495099600,494.76289495099600,left,0,0.3892889520066090,,,,,,28,20,K,W,2023-01-13_12h57.58.250,Flanker,2022.2.4,None,
Przez najbliższe 5 minut proszę kolorować otrzymaną pustą kartkę. Naciśnij spację aby zacząć odmierzać czas,,--<--,0,0,0,1,,,,,0,58,58,48,,,,,,,,,,,,,,,,,,,,,496.1538664999970,496.1538664999970,left,0,0.441314522002358,,,,,,28,20,K,W,2023-01-13_12h57.58.250,Flanker,2022.2.4,None,
Przez najbliższe 5 minut proszę kolorować otrzymaną pustą kartkę. Naciśnij spację aby zacząć odmierzać czas,,>><>>,0,0,0,1,,,,,0,59,59,37,,,,,,,,,,,,,,,,,,,,,497.62111794900600,497.62111794900600,left,0,0.5301527600095140,,,,,,28,20,K,W,2023-01-13_12h57.58.250,Flanker,2022.2.4,None,
Przez najbliższe 5 minut proszę kolorować otrzymaną pustą kartkę. Naciśnij spację aby zacząć odmierzać czas,,,0,0,0,1,,,,,,,,,,,,,,,,,,,,,,,,,,,,,,,,,,,,,,,28,20,K,W,2023-01-13_12h57.58.250,Flanker,2022.2.4,None,
Przez najbliższe 5 minut proszę kolorować otrzymaną kolorwankę z mandalą. Naciśnij spację aby zacząć odmierzać czas,--<--,,0,1,1,0,0,0,0,4,,,,,,,,,498.19171969400500,499.15807420099700,space,3.7740089200087800,502.949939721002,802.9545828379920,804.946282525998,space,3.274759754000120,808.2370816649930,817.225743433999,817.225743433999,left,0,1.0405129779974200,,,,,,,,,,,,28,20,K,W,2023-01-13_12h57.58.250,Flanker,2022.2.4,None,
Przez najbliższe 5 minut proszę kolorować otrzymaną kolorwankę z mandalą. Naciśnij spację aby zacząć odmierzać czas,<<><<,,0,1,1,0,0,1,1,2,,,,,,,,,,,,,,,,,,,819.2706564069960,819.2706564069960,right,0,0.6180525670060890,,,,,,,,,,,,28,20,K,W,2023-01-13_12h57.58.250,Flanker,2022.2.4,None,
Przez najbliższe 5 minut proszę kolorować otrzymaną kolorwankę z mandalą. Naciśnij spację aby zacząć odmierzać czas,-->--,,0,1,1,0,0,2,2,5,,,,,,,,,,,,,,,,,,,820.8975597749960,820.8975597749960,right,0,0.4682624620036220,,,,,,,,,,,,28,20,K,W,2023-01-13_12h57.58.250,Flanker,2022.2.4,None,
Przez najbliższe 5 minut proszę kolorować otrzymaną kolorwankę z mandalą. Naciśnij spację aby zacząć odmierzać czas,>>>>>,,0,1,1,0,0,3,3,1,,,,,,,,,,,,,,,,,,,822.3839260609970,822.3839260609970,right,0,0.4777819940063640,,,,,,,,,,,,28,20,K,W,2023-01-13_12h57.58.250,Flanker,2022.2.4,None,
Przez najbliższe 5 minut proszę kolorować otrzymaną kolorwankę z mandalą. Naciśnij spację aby zacząć odmierzać czas,<<<<<,,0,1,1,0,0,4,4,0,,,,,,,,,,,,,,,,,,,823.8750638719940,823.8750638719940,left,0,0.33653270099603100,,,,,,,,,,,,28,20,K,W,2023-01-13_12h57.58.250,Flanker,2022.2.4,None,
Przez najbliższe 5 minut proszę kolorować otrzymaną kolorwankę z mandalą. Naciśnij spację aby zacząć odmierzać czas,>><>>,,0,1,1,0,0,5,5,3,,,,,,,,,,,,,,,,,,,825.2190955050030,825.2190955050030,left,0,0.6345041489985310,,,,,,,,,,,,28,20,K,W,2023-01-13_12h57.58.250,Flanker,2022.2.4,None,
Przez najbliższe 5 minut proszę kolorować otrzymaną kolorwankę z mandalą. Naciśnij spację aby zacząć odmierzać czas,,>>>>>,0,1,1,0,,,,,0,0,0,8,,,,,,,,,,,,,,,,,,,,826.8718532450000,834.8711658840040,834.8711658840040,right,0,0.9072422739991450,833.8771587189990,,,,,28,20,K,W,2023-01-13_12h57.58.250,Flanker,2022.2.4,None,
Przez najbliższe 5 minut proszę kolorować otrzymaną kolorwankę z mandalą. Naciśnij spację aby zacząć odmierzać czas,,-->--,0,1,1,0,,,,,0,1,1,55,,,,,,,,,,,,,,,,,,,,,836.7844259959970,836.7844259959970,right,0,0.42511170101352000,,,,,,28,20,K,W,2023-01-13_12h57.58.250,Flanker,2022.2.4,None,
Przez najbliższe 5 minut proszę kolorować otrzymaną kolorwankę z mandalą. Naciśnij spację aby zacząć odmierzać czas,,-->--,0,1,1,0,,,,,0,2,2,50,,,,,,,,,,,,,,,,,,,,,838.2242861900010,838.2242861900010,right,0,0.40321360900998100,,,,,,28,20,K,W,2023-01-13_12h57.58.250,Flanker,2022.2.4,None,
Przez najbliższe 5 minut proszę kolorować otrzymaną kolorwankę z mandalą. Naciśnij spację aby zacząć odmierzać czas,,<<><<,0,1,1,0,,,,,0,3,3,21,,,,,,,,,,,,,,,,,,,,,839.6475002950030,839.6475002950030,right,0,0.6589790520083630,,,,,,28,20,K,W,2023-01-13_12h57.58.250,Flanker,2022.2.4,None,
Przez najbliższe 5 minut proszę kolorować otrzymaną kolorwankę z mandalą. Naciśnij spację aby zacząć odmierzać czas,,--<--,0,1,1,0,,,,,0,4,4,42,,,,,,,,,,,,,,,,,,,,,841.307178624993,841.307178624993,left,0,0.3752180320007030,,,,,,28,20,K,W,2023-01-13_12h57.58.250,Flanker,2022.2.4,None,
Przez najbliższe 5 minut proszę kolorować otrzymaną kolorwankę z mandalą. Naciśnij spację aby zacząć odmierzać czas,,<<><<,0,1,1,0,,,,,0,5,5,20,,,,,,,,,,,,,,,,,,,,,842.6837624960030,842.6837624960030,right,0,0.5716731029970110,,,,,,28,20,K,W,2023-01-13_12h57.58.250,Flanker,2022.2.4,None,
Przez najbliższe 5 minut proszę kolorować otrzymaną kolorwankę z mandalą. Naciśnij spację aby zacząć odmierzać czas,,--<--,0,1,1,0,,,,,0,6,6,43,,,,,,,,,,,,,,,,,,,,,844.2588404910060,844.2588404910060,left,0,0.4114017079991750,,,,,,28,20,K,W,2023-01-13_12h57.58.250,Flanker,2022.2.4,None,
Przez najbliższe 5 minut proszę kolorować otrzymaną kolorwankę z mandalą. Naciśnij spację aby zacząć odmierzać czas,,<<<<<,0,1,1,0,,,,,0,7,7,15,,,,,,,,,,,,,,,,,,,,,845.6809638919950,845.6809638919950,left,0,0.4763731330021980,,,,,,28,20,K,W,2023-01-13_12h57.58.250,Flanker,2022.2.4,None,
Przez najbliższe 5 minut proszę kolorować otrzymaną kolorwankę z mandalą. Naciśnij spację aby zacząć odmierzać czas,,>><>>,0,1,1,0,,,,,0,8,8,36,,,,,,,,,,,,,,,,,,,,,847.1643347719950,847.1643347719950,left,0,0.49694538000039800,,,,,,28,20,K,W,2023-01-13_12h57.58.250,Flanker,2022.2.4,None,
Przez najbliższe 5 minut proszę kolorować otrzymaną kolorwankę z mandalą. Naciśnij spację aby zacząć odmierzać czas,,>><>>,0,1,1,0,,,,,0,9,9,33,,,,,,,,,,,,,,,,,,,,,848.6796951419970,848.6796951419970,left,0,0.40362575300969200,,,,,,28,20,K,W,2023-01-13_12h57.58.250,Flanker,2022.2.4,None,
Przez najbliższe 5 minut proszę kolorować otrzymaną kolorwankę z mandalą. Naciśnij spację aby zacząć odmierzać czas,,<<<<<,0,1,1,0,,,,,0,10,10,17,,,,,,,,,,,,,,,,,,,,,850.0873065409980,850.0873065409980,left,0,0.4027491779997950,,,,,,28,20,K,W,2023-01-13_12h57.58.250,Flanker,2022.2.4,None,
Przez najbliższe 5 minut proszę kolorować otrzymaną kolorwankę z mandalą. Naciśnij spację aby zacząć odmierzać czas,,<<<<<,0,1,1,0,,,,,0,11,11,11,,,,,,,,,,,,,,,,,,,,,851.5037822629970,851.5037822629970,left,0,0.36849667700880700,,,,,,28,20,K,W,2023-01-13_12h57.58.250,Flanker,2022.2.4,None,
Przez najbliższe 5 minut proszę kolorować otrzymaną kolorwankę z mandalą. Naciśnij spację aby zacząć odmierzać czas,,--<--,0,1,1,0,,,,,0,12,12,46,,,,,,,,,,,,,,,,,,,,,852.8776191130020,852.8776191130020,left,0,0.34757093200460100,,,,,,28,20,K,W,2023-01-13_12h57.58.250,Flanker,2022.2.4,None,
Przez najbliższe 5 minut proszę kolorować otrzymaną kolorwankę z mandalą. Naciśnij spację aby zacząć odmierzać czas,,-->--,0,1,1,0,,,,,0,13,13,52,,,,,,,,,,,,,,,,,,,,,854.2243343879960,854.2243343879960,right,0,0.5738132719998250,,,,,,28,20,K,W,2023-01-13_12h57.58.250,Flanker,2022.2.4,None,
Przez najbliższe 5 minut proszę kolorować otrzymaną kolorwankę z mandalą. Naciśnij spację aby zacząć odmierzać czas,,>><>>,0,1,1,0,,,,,0,14,14,34,,,,,,,,,,,,,,,,,,,,,855.8037383699990,855.8037383699990,left,0,0.4562743519927610,,,,,,28,20,K,W,2023-01-13_12h57.58.250,Flanker,2022.2.4,None,
Przez najbliższe 5 minut proszę kolorować otrzymaną kolorwankę z mandalą. Naciśnij spację aby zacząć odmierzać czas,,>>>>>,0,1,1,0,,,,,0,15,15,0,,,,,,,,,,,,,,,,,,,,,857.2693839179990,857.2693839179990,right,0,0.7126927349891050,,,,,,28,20,K,W,2023-01-13_12h57.58.250,Flanker,2022.2.4,None,
Przez najbliższe 5 minut proszę kolorować otrzymaną kolorwankę z mandalą. Naciśnij spację aby zacząć odmierzać czas,,>><>>,0,1,1,0,,,,,0,16,16,30,,,,,,,,,,,,,,,,,,,,,859.0000574150040,859.0000574150040,left,0,0.4339057900069750,,,,,,28,20,K,W,2023-01-13_12h57.58.250,Flanker,2022.2.4,None,
Przez najbliższe 5 minut proszę kolorować otrzymaną kolorwankę z mandalą. Naciśnij spację aby zacząć odmierzać czas,,-->--,0,1,1,0,,,,,0,17,17,54,,,,,,,,,,,,,,,,,,,,,860.4408054560050,860.4408054560050,right,0,0.482243266000296,,,,,,28,20,K,W,2023-01-13_12h57.58.250,Flanker,2022.2.4,None,
Przez najbliższe 5 minut proszę kolorować otrzymaną kolorwankę z mandalą. Naciśnij spację aby zacząć odmierzać czas,,-->--,0,1,1,0,,,,,0,18,18,57,,,,,,,,,,,,,,,,,,,,,861.9238757120040,861.9238757120040,right,0,0.5041134949860860,,,,,,28,20,K,W,2023-01-13_12h57.58.250,Flanker,2022.2.4,None,
Przez najbliższe 5 minut proszę kolorować otrzymaną kolorwankę z mandalą. Naciśnij spację aby zacząć odmierzać czas,,>>>>>,0,1,1,0,,,,,0,19,19,7,,,,,,,,,,,,,,,,,,,,,863.4419758870060,863.4419758870060,right,0,0.3668482560024130,,,,,,28,20,K,W,2023-01-13_12h57.58.250,Flanker,2022.2.4,None,
Przez najbliższe 5 minut proszę kolorować otrzymaną kolorwankę z mandalą. Naciśnij spację aby zacząć odmierzać czas,,<<><<,0,1,1,0,,,,,0,20,20,24,,,,,,,,,,,,,,,,,,,,,864.8138852609990,864.8138852609990,right,0,0.5320813520083900,,,,,,28,20,K,W,2023-01-13_12h57.58.250,Flanker,2022.2.4,None,
Przez najbliższe 5 minut proszę kolorować otrzymaną kolorwankę z mandalą. Naciśnij spację aby zacząć odmierzać czas,,>>>>>,0,1,1,0,,,,,0,21,21,4,,,,,,,,,,,,,,,,,,,,,866.3523812399940,866.3523812399940,right,0,0.39438721199985600,,,,,,28,20,K,W,2023-01-13_12h57.58.250,Flanker,2022.2.4,None,
Przez najbliższe 5 minut proszę kolorować otrzymaną kolorwankę z mandalą. Naciśnij spację aby zacząć odmierzać czas,,>>>>>,0,1,1,0,,,,,0,22,22,6,,,,,,,,,,,,,,,,,,,,,867.7494241469980,867.7494241469980,right,0,0.3544084080058380,,,,,,28,20,K,W,2023-01-13_12h57.58.250,Flanker,2022.2.4,None,
Przez najbliższe 5 minut proszę kolorować otrzymaną kolorwankę z mandalą. Naciśnij spację aby zacząć odmierzać czas,,>>>>>,0,1,1,0,,,,,0,23,23,1,,,,,,,,,,,,,,,,,,,,,869.1136635589940,869.1136635589940,right,0,0.4140196219959760,,,,,,28,20,K,W,2023-01-13_12h57.58.250,Flanker,2022.2.4,None,
Przez najbliższe 5 minut proszę kolorować otrzymaną kolorwankę z mandalą. Naciśnij spację aby zacząć odmierzać czas,,<<<<<,0,1,1,0,,,,,0,24,24,16,,,,,,,,,,,,,,,,,,,,,870.5364727279960,870.5364727279960,left,0,0.42020824800420100,,,,,,28,20,K,W,2023-01-13_12h57.58.250,Flanker,2022.2.4,None,
Przez najbliższe 5 minut proszę kolorować otrzymaną kolorwankę z mandalą. Naciśnij spację aby zacząć odmierzać czas,,--<--,0,1,1,0,,,,,0,25,25,40,,,,,,,,,,,,,,,,,,,,,871.9586954139960,871.9586954139960,left,0,0.3829812540061540,,,,,,28,20,K,W,2023-01-13_12h57.58.250,Flanker,2022.2.4,None,
Przez najbliższe 5 minut proszę kolorować otrzymaną kolorwankę z mandalą. Naciśnij spację aby zacząć odmierzać czas,,-->--,0,1,1,0,,,,,0,26,26,51,,,,,,,,,,,,,,,,,,,,,873.3592177999960,873.3592177999960,right,0,0.4632977310102430,,,,,,28,20,K,W,2023-01-13_12h57.58.250,Flanker,2022.2.4,None,
Przez najbliższe 5 minut proszę kolorować otrzymaną kolorwankę z mandalą. Naciśnij spację aby zacząć odmierzać czas,,-->--,0,1,1,0,,,,,0,27,27,58,,,,,,,,,,,,,,,,,,,,,874.8237771319980,874.8237771319980,right,0,0.3928138570045120,,,,,,28,20,K,W,2023-01-13_12h57.58.250,Flanker,2022.2.4,None,
Przez najbliższe 5 minut proszę kolorować otrzymaną kolorwankę z mandalą. Naciśnij spację aby zacząć odmierzać czas,,>>>>> ,0,1,1,0,,,,,0,28,28,5,,,,,,,,,,,,,,,,,,,,,876.2330982440040,876.2330982440040,right,0,0.4266070689918710,,,,,,28,20,K,W,2023-01-13_12h57.58.250,Flanker,2022.2.4,None,
Przez najbliższe 5 minut proszę kolorować otrzymaną kolorwankę z mandalą. Naciśnij spację aby zacząć odmierzać czas,,--<--,0,1,1,0,,,,,0,29,29,45,,,,,,,,,,,,,,,,,,,,,877.6745247090000,877.6745247090000,left,0,0.3840721250016940,,,,,,28,20,K,W,2023-01-13_12h57.58.250,Flanker,2022.2.4,None,
Przez najbliższe 5 minut proszę kolorować otrzymaną kolorwankę z mandalą. Naciśnij spację aby zacząć odmierzać czas,,-->--,0,1,1,0,,,,,0,30,30,53,,,,,,,,,,,,,,,,,,,,,879.0701983379990,879.0701983379990,left,0,0.35417939101171200,,,,,,28,20,K,W,2023-01-13_12h57.58.250,Flanker,2022.2.4,None,
Przez najbliższe 5 minut proszę kolorować otrzymaną kolorwankę z mandalą. Naciśnij spację aby zacząć odmierzać czas,,<<><<,0,1,1,0,,,,,0,31,31,28,,,,,,,,,,,,,,,,,,,,,880.4366709189930,880.4366709189930,right,0,0.7088846520055090,,,,,,28,20,K,W,2023-01-13_12h57.58.250,Flanker,2022.2.4,None,
Przez najbliższe 5 minut proszę kolorować otrzymaną kolorwankę z mandalą. Naciśnij spację aby zacząć odmierzać czas,,<<><<,0,1,1,0,,,,,0,32,32,25,,,,,,,,,,,,,,,,,,,,,882.1536782009940,882.1536782009940,right,0,0.5188986709981690,,,,,,28,20,K,W,2023-01-13_12h57.58.250,Flanker,2022.2.4,None,
Przez najbliższe 5 minut proszę kolorować otrzymaną kolorwankę z mandalą. Naciśnij spację aby zacząć odmierzać czas,,>>>>>,0,1,1,0,,,,,0,33,33,9,,,,,,,,,,,,,,,,,,,,,883.687573186995,883.687573186995,right,0,0.44083101699652600,,,,,,28,20,K,W,2023-01-13_12h57.58.250,Flanker,2022.2.4,None,
Przez najbliższe 5 minut proszę kolorować otrzymaną kolorwankę z mandalą. Naciśnij spację aby zacząć odmierzać czas,,<<><<,0,1,1,0,,,,,0,34,34,27,,,,,,,,,,,,,,,,,,,,,885.1354272850000,885.1354272850000,left,0,0.7258770729968090,,,,,,28,20,K,W,2023-01-13_12h57.58.250,Flanker,2022.2.4,None,
Przez najbliższe 5 minut proszę kolorować otrzymaną kolorwankę z mandalą. Naciśnij spację aby zacząć odmierzać czas,,<<<<<,0,1,1,0,,,,,0,35,35,10,,,,,,,,,,,,,,,,,,,,,886.8685398399980,886.8685398399980,left,0,0.4818629729998070,,,,,,28,20,K,W,2023-01-13_12h57.58.250,Flanker,2022.2.4,None,
Przez najbliższe 5 minut proszę kolorować otrzymaną kolorwankę z mandalą. Naciśnij spację aby zacząć odmierzać czas,,>><>>,0,1,1,0,,,,,0,36,36,35,,,,,,,,,,,,,,,,,,,,,888.357489283997,888.357489283997,left,0,0.45191926999541500,,,,,,28,20,K,W,2023-01-13_12h57.58.250,Flanker,2022.2.4,None,
Przez najbliższe 5 minut proszę kolorować otrzymaną kolorwankę z mandalą. Naciśnij spację aby zacząć odmierzać czas,,<<><<,0,1,1,0,,,,,0,37,37,26,,,,,,,,,,,,,,,,,,,,,889.8133795339960,889.8133795339960,right,0,0.7929290089959980,,,,,,28,20,K,W,2023-01-13_12h57.58.250,Flanker,2022.2.4,None,
Przez najbliższe 5 minut proszę kolorować otrzymaną kolorwankę z mandalą. Naciśnij spację aby zacząć odmierzać czas,,<<><<,0,1,1,0,,,,,0,38,38,22,,,,,,,,,,,,,,,,,,,,,891.607586928003,891.607586928003,right,0,0.5087376510055040,,,,,,28,20,K,W,2023-01-13_12h57.58.250,Flanker,2022.2.4,None,
Przez najbliższe 5 minut proszę kolorować otrzymaną kolorwankę z mandalą. Naciśnij spację aby zacząć odmierzać czas,,--<--,0,1,1,0,,,,,0,39,39,47,,,,,,,,,,,,,,,,,,,,,893.136733242005,893.136733242005,left,0,0.45445929998823000,,,,,,28,20,K,W,2023-01-13_12h57.58.250,Flanker,2022.2.4,None,
Przez najbliższe 5 minut proszę kolorować otrzymaną kolorwankę z mandalą. Naciśnij spację aby zacząć odmierzać czas,,<<<<<,0,1,1,0,,,,,0,40,40,18,,,,,,,,,,,,,,,,,,,,,894.6134549919950,894.6134549919950,left,0,0.359677674001432,,,,,,28,20,K,W,2023-01-13_12h57.58.250,Flanker,2022.2.4,None,
Przez najbliższe 5 minut proszę kolorować otrzymaną kolorwankę z mandalą. Naciśnij spację aby zacząć odmierzać czas,,>><>>,0,1,1,0,,,,,0,41,41,38,,,,,,,,,,,,,,,,,,,,,895.9815223750050,895.9815223750050,left,0,0.4175581460003740,,,,,,28,20,K,W,2023-01-13_12h57.58.250,Flanker,2022.2.4,None,
Przez najbliższe 5 minut proszę kolorować otrzymaną kolorwankę z mandalą. Naciśnij spację aby zacząć odmierzać czas,,>><>>,0,1,1,0,,,,,0,42,42,31,,,,,,,,,,,,,,,,,,,,,897.4164827420030,897.4164827420030,left,0,0.4477147010038610,,,,,,28,20,K,W,2023-01-13_12h57.58.250,Flanker,2022.2.4,None,
Przez najbliższe 5 minut proszę kolorować otrzymaną kolorwankę z mandalą. Naciśnij spację aby zacząć odmierzać czas,,--<--,0,1,1,0,,,,,0,43,43,49,,,,,,,,,,,,,,,,,,,,,898.8799113110000,898.8799113110000,left,0,0.3600682730029800,,,,,,28,20,K,W,2023-01-13_12h57.58.250,Flanker,2022.2.4,None,
Przez najbliższe 5 minut proszę kolorować otrzymaną kolorwankę z mandalą. Naciśnij spację aby zacząć odmierzać czas,,<<><<,0,1,1,0,,,,,0,44,44,23,,,,,,,,,,,,,,,,,,,,,900.2493710620040,900.2493710620040,left,0,0.5337338850076780,,,,,,28,20,K,W,2023-01-13_12h57.58.250,Flanker,2022.2.4,None,
Przez najbliższe 5 minut proszę kolorować otrzymaną kolorwankę z mandalą. Naciśnij spację aby zacząć odmierzać czas,,>>>>>,0,1,1,0,,,,,0,45,45,2,,,,,,,,,,,,,,,,,,,,,901.7853274270020,901.7853274270020,right,0,0.41173326699936300,,,,,,28,20,K,W,2023-01-13_12h57.58.250,Flanker,2022.2.4,None,
Przez najbliższe 5 minut proszę kolorować otrzymaną kolorwankę z mandalą. Naciśnij spację aby zacząć odmierzać czas,,-->--,0,1,1,0,,,,,0,46,46,56,,,,,,,,,,,,,,,,,,,,,903.2135080589940,903.2135080589940,right,0,0.4485375539952660,,,,,,28,20,K,W,2023-01-13_12h57.58.250,Flanker,2022.2.4,None,
Przez najbliższe 5 minut proszę kolorować otrzymaną kolorwankę z mandalą. Naciśnij spację aby zacząć odmierzać czas,,<<<<<,0,1,1,0,,,,,0,47,47,13,,,,,,,,,,,,,,,,,,,,,904.6663310180010,904.6663310180010,left,0,0.4045235679950570,,,,,,28,20,K,W,2023-01-13_12h57.58.250,Flanker,2022.2.4,None,
Przez najbliższe 5 minut proszę kolorować otrzymaną kolorwankę z mandalą. Naciśnij spację aby zacząć odmierzać czas,,--<--,0,1,1,0,,,,,0,48,48,41,,,,,,,,,,,,,,,,,,,,,906.0850924209950,906.0850924209950,left,0,0.4108732820022850,,,,,,28,20,K,W,2023-01-13_12h57.58.250,Flanker,2022.2.4,None,
Przez najbliższe 5 minut proszę kolorować otrzymaną kolorwankę z mandalą. Naciśnij spację aby zacząć odmierzać czas,,-->--,0,1,1,0,,,,,0,49,49,59,,,,,,,,,,,,,,,,,,,,,907.5134720880010,907.5134720880010,right,0,0.5304047340032410,,,,,,28,20,K,W,2023-01-13_12h57.58.250,Flanker,2022.2.4,None,
Przez najbliższe 5 minut proszę kolorować otrzymaną kolorwankę z mandalą. Naciśnij spację aby zacząć odmierzać czas,,>><>>,0,1,1,0,,,,,0,50,50,37,,,,,,,,,,,,,,,,,,,,,909.0466047619990,909.0466047619990,left,0,0.38112409399764100,,,,,,28,20,K,W,2023-01-13_12h57.58.250,Flanker,2022.2.4,None,
Przez najbliższe 5 minut proszę kolorować otrzymaną kolorwankę z mandalą. Naciśnij spację aby zacząć odmierzać czas,,>><>>,0,1,1,0,,,,,0,51,51,32,,,,,,,,,,,,,,,,,,,,,910.436083018998,910.436083018998,left,0,0.49672053300309900,,,,,,28,20,K,W,2023-01-13_12h57.58.250,Flanker,2022.2.4,None,
Przez najbliższe 5 minut proszę kolorować otrzymaną kolorwankę z mandalą. Naciśnij spację aby zacząć odmierzać czas,,<<<<<,0,1,1,0,,,,,0,52,52,14,,,,,,,,,,,,,,,,,,,,,911.9486859839960,911.9486859839960,left,0,0.3440978209982860,,,,,,28,20,K,W,2023-01-13_12h57.58.250,Flanker,2022.2.4,None,
Przez najbliższe 5 minut proszę kolorować otrzymaną kolorwankę z mandalą. Naciśnij spację aby zacząć odmierzać czas,,--<--,0,1,1,0,,,,,0,53,53,44,,,,,,,,,,,,,,,,,,,,,913.2984884839970,913.2984884839970,left,0,0.41619658800482300,,,,,,28,20,K,W,2023-01-13_12h57.58.250,Flanker,2022.2.4,None,
Przez najbliższe 5 minut proszę kolorować otrzymaną kolorwankę z mandalą. Naciśnij spację aby zacząć odmierzać czas,,>>>>>,0,1,1,0,,,,,0,54,54,3,,,,,,,,,,,,,,,,,,,,,914.7253013970040,914.7253013970040,right,0,0.40922467899508800,,,,,,28,20,K,W,2023-01-13_12h57.58.250,Flanker,2022.2.4,None,
Przez najbliższe 5 minut proszę kolorować otrzymaną kolorwankę z mandalą. Naciśnij spację aby zacząć odmierzać czas,,<<<<<,0,1,1,0,,,,,0,55,55,12,,,,,,,,,,,,,,,,,,,,,916.1470016649980,916.1470016649980,left,0,0.3656622420094210,,,,,,28,20,K,W,2023-01-13_12h57.58.250,Flanker,2022.2.4,None,
Przez najbliższe 5 minut proszę kolorować otrzymaną kolorwankę z mandalą. Naciśnij spację aby zacząć odmierzać czas,,--<--,0,1,1,0,,,,,0,56,56,48,,,,,,,,,,,,,,,,,,,,,917.5176453430030,917.5176453430030,left,0,0.35309362500265700,,,,,,28,20,K,W,2023-01-13_12h57.58.250,Flanker,2022.2.4,None,
Przez najbliższe 5 minut proszę kolorować otrzymaną kolorwankę z mandalą. Naciśnij spację aby zacząć odmierzać czas,,>><>>,0,1,1,0,,,,,0,57,57,39,,,,,,,,,,,,,,,,,,,,,918.8789370229930,918.8789370229930,left,0,0.40873212899896300,,,,,,28,20,K,W,2023-01-13_12h57.58.250,Flanker,2022.2.4,None,
Przez najbliższe 5 minut proszę kolorować otrzymaną kolorwankę z mandalą. Naciśnij spację aby zacząć odmierzać czas,,<<><<,0,1,1,0,,,,,0,58,58,29,,,,,,,,,,,,,,,,,,,,,920.3016333790000,920.3016333790000,left,0,0.5298494909948200,,,,,,28,20,K,W,2023-01-13_12h57.58.250,Flanker,2022.2.4,None,
Przez najbliższe 5 minut proszę kolorować otrzymaną kolorwankę z mandalą. Naciśnij spację aby zacząć odmierzać czas,,<<<<<,0,1,1,0,,,,,0,59,59,19,,,,,,,,,,,,,,,,,,,,,921.8466633780050,921.8466633780050,left,0,0.35894997700233900,,,,,,28,20,K,W,2023-01-13_12h57.58.250,Flanker,2022.2.4,None,
Przez najbliższe 5 minut proszę kolorować otrzymaną kolorwankę z mandalą. Naciśnij spację aby zacząć odmierzać czas,,,0,1,1,0,,,,,,,,,,,,,,,,,,,,,,,,,,,,,,,,,,,,,,,28,20,K,W,2023-01-13_12h57.58.250,Flanker,2022.2.4,None,
,,,,,,,,,,,,,,,,,,,,,,,,,,,,,,,,,,,,,,,,,923.2147751339940,923.2147751339940,space,1.8336722720123400,28,20,K,W,2023-01-13_12h57.58.250,Flanker,2022.2.4,None,