kolorowanka,Example,Stimuli,proby.thisRepN,proby.thisTrialN,proby.thisN,proby.thisIndex,zapoznanie.thisRepN,zapoznanie.thisTrialN,zapoznanie.thisN,zapoznanie.thisIndex,Warunki.thisRepN,Warunki.thisTrialN,Warunki.thisN,Warunki.thisIndex,Intro.started,Intro_resp.started,Intro_resp.keys,Intro_resp.rt,Kolorowanie1.started,starttt.started,starttt.keys,starttt.rt,koloruj.started,Instruction.started,key_resp.started,key_resp.keys,key_resp.rt,Wyjasnienie.started,text.started,odp_przyk.started,odp_przyk.keys,odp_przyk.corr,odp_przyk.rt,zapo.started,Zadanie.started,Odp.started,Odp.keys,Odp.corr,Odp.rt,zapo.stopped,thanks.started,KONIEC.started,KONIEC.keys,KONIEC.rt,participant,Wiek (w latach),Płeć (K/M),Entropia,date,expName,psychopyVersion,frameRate,
,,,,,,,,,,,,,,,28.43496929097460,30.413271195953700,space,33.02154993696600,,,,,,,,,,,,,,,,,,,,,,,,,,,2,21,M,N,2023-01-03_12h06.37.672,Flanker,2022.2.4,None,
Przez najbliższe 5 minut proszę kolorować otrzymaną kolorwankę z mandalą. Naciśnij spację aby zacząć odmierzać czas,<<<<<,,0,0,0,0,0,0,0,0,,,,,,,,,63.50976007489950,64.44005221396220,space,22.388761495007200,86.87015911191700,386.8544078139820,388.85770911793200,space,45.465328990947500,434.3491767459780,443.34196023095900,443.34196023095900,left,0,1.157486431999130,,,,,,,,,,,,2,21,M,N,2023-01-03_12h06.37.672,Flanker,2022.2.4,None,
Przez najbliższe 5 minut proszę kolorować otrzymaną kolorwankę z mandalą. Naciśnij spację aby zacząć odmierzać czas,>><>>,,0,0,0,0,0,1,1,3,,,,,,,,,,,,,,,,,,,445.51539870293300,445.51539870293300,right,0,1.6859869239851800,,,,,,,,,,,,2,21,M,N,2023-01-03_12h06.37.672,Flanker,2022.2.4,None,
Przez najbliższe 5 minut proszę kolorować otrzymaną kolorwankę z mandalą. Naciśnij spację aby zacząć odmierzać czas,--<--,,0,0,0,0,0,2,2,4,,,,,,,,,,,,,,,,,,,448.20438918389800,448.20438918389800,left,0,2.8679488780908300,,,,,,,,,,,,2,21,M,N,2023-01-03_12h06.37.672,Flanker,2022.2.4,None,
Przez najbliższe 5 minut proszę kolorować otrzymaną kolorwankę z mandalą. Naciśnij spację aby zacząć odmierzać czas,>>>>>,,0,0,0,0,0,3,3,1,,,,,,,,,,,,,,,,,,,452.08616404188800,452.08616404188800,right,0,1.9620967160444700,,,,,,,,,,,,2,21,M,N,2023-01-03_12h06.37.672,Flanker,2022.2.4,None,
Przez najbliższe 5 minut proszę kolorować otrzymaną kolorwankę z mandalą. Naciśnij spację aby zacząć odmierzać czas,-->--,,0,0,0,0,0,4,4,5,,,,,,,,,,,,,,,,,,,455.0632109110010,455.0632109110010,right,0,0.8029626960633320,,,,,,,,,,,,2,21,M,N,2023-01-03_12h06.37.672,Flanker,2022.2.4,None,
Przez najbliższe 5 minut proszę kolorować otrzymaną kolorwankę z mandalą. Naciśnij spację aby zacząć odmierzać czas,<<><<,,0,0,0,0,0,5,5,2,,,,,,,,,,,,,,,,,,,456.88085324899300,456.88085324899300,right,0,1.4085814540740100,,,,,,,,,,,,2,21,M,N,2023-01-03_12h06.37.672,Flanker,2022.2.4,None,
Przez najbliższe 5 minut proszę kolorować otrzymaną kolorwankę z mandalą. Naciśnij spację aby zacząć odmierzać czas,,--<--,0,0,0,0,,,,,0,0,0,46,,,,,,,,,,,,,,,,,,,,459.3037354419940,467.3034462739020,467.3034462739020,left,0,0.8698749030008910,,,,,,2,21,M,N,2023-01-03_12h06.37.672,Flanker,2022.2.4,None,
Przez najbliższe 5 minut proszę kolorować otrzymaną kolorwankę z mandalą. Naciśnij spację aby zacząć odmierzać czas,,>>>>>,0,0,0,0,,,,,0,1,1,1,,,,,,,,,,,,,,,,,,,,,469.1800987710010,469.1800987710010,right,0,0.4521317130420360,,,,,,2,21,M,N,2023-01-03_12h06.37.672,Flanker,2022.2.4,None,
Przez najbliższe 5 minut proszę kolorować otrzymaną kolorwankę z mandalą. Naciśnij spację aby zacząć odmierzać czas,,<<<<<,0,0,0,0,,,,,0,2,2,13,,,,,,,,,,,,,,,,,,,,,470.6293651179880,470.6293651179880,left,0,0.43307770299725200,,,,,,2,21,M,N,2023-01-03_12h06.37.672,Flanker,2022.2.4,None,
Przez najbliższe 5 minut proszę kolorować otrzymaną kolorwankę z mandalą. Naciśnij spację aby zacząć odmierzać czas,,>>>>>,0,0,0,0,,,,,0,3,3,9,,,,,,,,,,,,,,,,,,,,,472.07789058890200,472.07789058890200,right,0,0.38724787498358600,,,,,,2,21,M,N,2023-01-03_12h06.37.672,Flanker,2022.2.4,None,
Przez najbliższe 5 minut proszę kolorować otrzymaną kolorwankę z mandalą. Naciśnij spację aby zacząć odmierzać czas,,<<<<<,0,0,0,0,,,,,0,4,4,16,,,,,,,,,,,,,,,,,,,,,473.49779757799100,473.49779757799100,left,0,0.3833587649278340,,,,,,2,21,M,N,2023-01-03_12h06.37.672,Flanker,2022.2.4,None,
Przez najbliższe 5 minut proszę kolorować otrzymaną kolorwankę z mandalą. Naciśnij spację aby zacząć odmierzać czas,,>><>>,0,0,0,0,,,,,0,5,5,36,,,,,,,,,,,,,,,,,,,,,474.88237259094600,474.88237259094600,left,0,0.8677767739864070,,,,,,2,21,M,N,2023-01-03_12h06.37.672,Flanker,2022.2.4,None,
Przez najbliższe 5 minut proszę kolorować otrzymaną kolorwankę z mandalą. Naciśnij spację aby zacząć odmierzać czas,,>>>>> ,0,0,0,0,,,,,0,6,6,5,,,,,,,,,,,,,,,,,,,,,476.766413391917,476.766413391917,right,0,0.45985418604686900,,,,,,2,21,M,N,2023-01-03_12h06.37.672,Flanker,2022.2.4,None,
Przez najbliższe 5 minut proszę kolorować otrzymaną kolorwankę z mandalą. Naciśnij spację aby zacząć odmierzać czas,,>>>>>,0,0,0,0,,,,,0,7,7,3,,,,,,,,,,,,,,,,,,,,,478.23537255392900,478.23537255392900,right,0,0.5226965349866080,,,,,,2,21,M,N,2023-01-03_12h06.37.672,Flanker,2022.2.4,None,
Przez najbliższe 5 minut proszę kolorować otrzymaną kolorwankę z mandalą. Naciśnij spację aby zacząć odmierzać czas,,-->--,0,0,0,0,,,,,0,8,8,52,,,,,,,,,,,,,,,,,,,,,479.75803592498400,479.75803592498400,right,0,0.516889077029191,,,,,,2,21,M,N,2023-01-03_12h06.37.672,Flanker,2022.2.4,None,
Przez najbliższe 5 minut proszę kolorować otrzymaną kolorwankę z mandalą. Naciśnij spację aby zacząć odmierzać czas,,-->--,0,0,0,0,,,,,0,9,9,57,,,,,,,,,,,,,,,,,,,,,481.2762073689370,481.2762073689370,right,0,0.3937591330613940,,,,,,2,21,M,N,2023-01-03_12h06.37.672,Flanker,2022.2.4,None,
Przez najbliższe 5 minut proszę kolorować otrzymaną kolorwankę z mandalą. Naciśnij spację aby zacząć odmierzać czas,,>>>>>,0,0,0,0,,,,,0,10,10,8,,,,,,,,,,,,,,,,,,,,,482.69437367795000,482.69437367795000,right,0,0.4225492209661750,,,,,,2,21,M,N,2023-01-03_12h06.37.672,Flanker,2022.2.4,None,
Przez najbliższe 5 minut proszę kolorować otrzymaną kolorwankę z mandalą. Naciśnij spację aby zacząć odmierzać czas,,>><>>,0,0,0,0,,,,,0,11,11,34,,,,,,,,,,,,,,,,,,,,,484.1226555299950,484.1226555299950,left,0,0.6722488319501280,,,,,,2,21,M,N,2023-01-03_12h06.37.672,Flanker,2022.2.4,None,
Przez najbliższe 5 minut proszę kolorować otrzymaną kolorwankę z mandalą. Naciśnij spację aby zacząć odmierzać czas,,<<><<,0,0,0,0,,,,,0,12,12,26,,,,,,,,,,,,,,,,,,,,,485.82474214292600,485.82474214292600,right,0,0.559098948026076,,,,,,2,21,M,N,2023-01-03_12h06.37.672,Flanker,2022.2.4,None,
Przez najbliższe 5 minut proszę kolorować otrzymaną kolorwankę z mandalą. Naciśnij spację aby zacząć odmierzać czas,,<<><<,0,0,0,0,,,,,0,13,13,24,,,,,,,,,,,,,,,,,,,,,487.39733949198900,487.39733949198900,left,0,0.343558770022355,,,,,,2,21,M,N,2023-01-03_12h06.37.672,Flanker,2022.2.4,None,
Przez najbliższe 5 minut proszę kolorować otrzymaną kolorwankę z mandalą. Naciśnij spację aby zacząć odmierzać czas,,>><>>,0,0,0,0,,,,,0,14,14,39,,,,,,,,,,,,,,,,,,,,,488.74752004095400,488.74752004095400,left,0,0.6954452890204270,,,,,,2,21,M,N,2023-01-03_12h06.37.672,Flanker,2022.2.4,None,
Przez najbliższe 5 minut proszę kolorować otrzymaną kolorwankę z mandalą. Naciśnij spację aby zacząć odmierzać czas,,<<><<,0,0,0,0,,,,,0,15,15,28,,,,,,,,,,,,,,,,,,,,,490.45359931490400,490.45359931490400,right,0,0.5572026849258690,,,,,,2,21,M,N,2023-01-03_12h06.37.672,Flanker,2022.2.4,None,
Przez najbliższe 5 minut proszę kolorować otrzymaną kolorwankę z mandalą. Naciśnij spację aby zacząć odmierzać czas,,-->--,0,0,0,0,,,,,0,16,16,55,,,,,,,,,,,,,,,,,,,,,492.0395613469880,492.0395613469880,right,0,0.458386113983579,,,,,,2,21,M,N,2023-01-03_12h06.37.672,Flanker,2022.2.4,None,
Przez najbliższe 5 minut proszę kolorować otrzymaną kolorwankę z mandalą. Naciśnij spację aby zacząć odmierzać czas,,>><>>,0,0,0,0,,,,,0,17,17,38,,,,,,,,,,,,,,,,,,,,,493.5119792060000,493.5119792060000,left,0,0.5078318510204550,,,,,,2,21,M,N,2023-01-03_12h06.37.672,Flanker,2022.2.4,None,
Przez najbliższe 5 minut proszę kolorować otrzymaną kolorwankę z mandalą. Naciśnij spację aby zacząć odmierzać czas,,>>>>>,0,0,0,0,,,,,0,18,18,2,,,,,,,,,,,,,,,,,,,,,495.04142033297100,495.04142033297100,right,0,0.4353285579709340,,,,,,2,21,M,N,2023-01-03_12h06.37.672,Flanker,2022.2.4,None,
Przez najbliższe 5 minut proszę kolorować otrzymaną kolorwankę z mandalą. Naciśnij spację aby zacząć odmierzać czas,,>><>>,0,0,0,0,,,,,0,19,19,33,,,,,,,,,,,,,,,,,,,,,496.4870563648870,496.4870563648870,left,0,0.6314876889809970,,,,,,2,21,M,N,2023-01-03_12h06.37.672,Flanker,2022.2.4,None,
Przez najbliższe 5 minut proszę kolorować otrzymaną kolorwankę z mandalą. Naciśnij spację aby zacząć odmierzać czas,,<<<<<,0,0,0,0,,,,,0,20,20,11,,,,,,,,,,,,,,,,,,,,,498.1241319970000,498.1241319970000,left,0,0.41551464796066300,,,,,,2,21,M,N,2023-01-03_12h06.37.672,Flanker,2022.2.4,None,
Przez najbliższe 5 minut proszę kolorować otrzymaną kolorwankę z mandalą. Naciśnij spację aby zacząć odmierzać czas,,-->--,0,0,0,0,,,,,0,21,21,53,,,,,,,,,,,,,,,,,,,,,499.5390287139450,499.5390287139450,right,0,0.40351011301390800,,,,,,2,21,M,N,2023-01-03_12h06.37.672,Flanker,2022.2.4,None,
Przez najbliższe 5 minut proszę kolorować otrzymaną kolorwankę z mandalą. Naciśnij spację aby zacząć odmierzać czas,,<<<<<,0,0,0,0,,,,,0,22,22,15,,,,,,,,,,,,,,,,,,,,,500.94778237794500,500.94778237794500,left,0,0.3788639879785480,,,,,,2,21,M,N,2023-01-03_12h06.37.672,Flanker,2022.2.4,None,
Przez najbliższe 5 minut proszę kolorować otrzymaną kolorwankę z mandalą. Naciśnij spację aby zacząć odmierzać czas,,--<--,0,0,0,0,,,,,0,23,23,40,,,,,,,,,,,,,,,,,,,,,502.33475626597600,502.33475626597600,left,0,0.39884115499444300,,,,,,2,21,M,N,2023-01-03_12h06.37.672,Flanker,2022.2.4,None,
Przez najbliższe 5 minut proszę kolorować otrzymaną kolorwankę z mandalą. Naciśnij spację aby zacząć odmierzać czas,,>>>>>,0,0,0,0,,,,,0,24,24,4,,,,,,,,,,,,,,,,,,,,,503.7415281669240,503.7415281669240,right,0,0.3589629790512850,,,,,,2,21,M,N,2023-01-03_12h06.37.672,Flanker,2022.2.4,None,
Przez najbliższe 5 minut proszę kolorować otrzymaną kolorwankę z mandalą. Naciśnij spację aby zacząć odmierzać czas,,-->--,0,0,0,0,,,,,0,25,25,56,,,,,,,,,,,,,,,,,,,,,505.1081638279140,505.1081638279140,right,0,0.382423845003359,,,,,,2,21,M,N,2023-01-03_12h06.37.672,Flanker,2022.2.4,None,
Przez najbliższe 5 minut proszę kolorować otrzymaną kolorwankę z mandalą. Naciśnij spację aby zacząć odmierzać czas,,<<<<<,0,0,0,0,,,,,0,26,26,19,,,,,,,,,,,,,,,,,,,,,506.49601380794800,506.49601380794800,left,0,0.3274141129804780,,,,,,2,21,M,N,2023-01-03_12h06.37.672,Flanker,2022.2.4,None,
Przez najbliższe 5 minut proszę kolorować otrzymaną kolorwankę z mandalą. Naciśnij spację aby zacząć odmierzać czas,,--<--,0,0,0,0,,,,,0,27,27,43,,,,,,,,,,,,,,,,,,,,,507.8285610859750,507.8285610859750,left,0,0.4549116960261020,,,,,,2,21,M,N,2023-01-03_12h06.37.672,Flanker,2022.2.4,None,
Przez najbliższe 5 minut proszę kolorować otrzymaną kolorwankę z mandalą. Naciśnij spację aby zacząć odmierzać czas,,>><>>,0,0,0,0,,,,,0,28,28,30,,,,,,,,,,,,,,,,,,,,,509.294469396933,509.294469396933,left,0,0.6320105269551280,,,,,,2,21,M,N,2023-01-03_12h06.37.672,Flanker,2022.2.4,None,
Przez najbliższe 5 minut proszę kolorować otrzymaną kolorwankę z mandalą. Naciśnij spację aby zacząć odmierzać czas,,<<><<,0,0,0,0,,,,,0,29,29,27,,,,,,,,,,,,,,,,,,,,,510.93145234289100,510.93145234289100,right,0,0.514825901016593,,,,,,2,21,M,N,2023-01-03_12h06.37.672,Flanker,2022.2.4,None,
Przez najbliższe 5 minut proszę kolorować otrzymaną kolorwankę z mandalą. Naciśnij spację aby zacząć odmierzać czas,,<<><<,0,0,0,0,,,,,0,30,30,25,,,,,,,,,,,,,,,,,,,,,512.4524654319980,512.4524654319980,right,0,0.5028401539893820,,,,,,2,21,M,N,2023-01-03_12h06.37.672,Flanker,2022.2.4,None,
Przez najbliższe 5 minut proszę kolorować otrzymaną kolorwankę z mandalą. Naciśnij spację aby zacząć odmierzać czas,,--<--,0,0,0,0,,,,,0,31,31,47,,,,,,,,,,,,,,,,,,,,,513.9681543699700,513.9681543699700,left,0,0.4262020770693200,,,,,,2,21,M,N,2023-01-03_12h06.37.672,Flanker,2022.2.4,None,
Przez najbliższe 5 minut proszę kolorować otrzymaną kolorwankę z mandalą. Naciśnij spację aby zacząć odmierzać czas,,<<><<,0,0,0,0,,,,,0,32,32,20,,,,,,,,,,,,,,,,,,,,,515.3974242149850,515.3974242149850,right,0,0.4497821240220220,,,,,,2,21,M,N,2023-01-03_12h06.37.672,Flanker,2022.2.4,None,
Przez najbliższe 5 minut proszę kolorować otrzymaną kolorwankę z mandalą. Naciśnij spację aby zacząć odmierzać czas,,>><>>,0,0,0,0,,,,,0,33,33,32,,,,,,,,,,,,,,,,,,,,,516.8480222589570,516.8480222589570,left,0,0.46819211007095900,,,,,,2,21,M,N,2023-01-03_12h06.37.672,Flanker,2022.2.4,None,
Przez najbliższe 5 minut proszę kolorować otrzymaną kolorwankę z mandalą. Naciśnij spację aby zacząć odmierzać czas,,<<<<<,0,0,0,0,,,,,0,34,34,18,,,,,,,,,,,,,,,,,,,,,518.3243448389690,518.3243448389690,left,0,0.405771397985518,,,,,,2,21,M,N,2023-01-03_12h06.37.672,Flanker,2022.2.4,None,
Przez najbliższe 5 minut proszę kolorować otrzymaną kolorwankę z mandalą. Naciśnij spację aby zacząć odmierzać czas,,<<<<<,0,0,0,0,,,,,0,35,35,14,,,,,,,,,,,,,,,,,,,,,519.7348470159340,519.7348470159340,left,0,0.39242958708200600,,,,,,2,21,M,N,2023-01-03_12h06.37.672,Flanker,2022.2.4,None,
Przez najbliższe 5 minut proszę kolorować otrzymaną kolorwankę z mandalą. Naciśnij spację aby zacząć odmierzać czas,,>>>>>,0,0,0,0,,,,,0,36,36,0,,,,,,,,,,,,,,,,,,,,,521.1408820409560,521.1408820409560,right,0,0.3843500940129160,,,,,,2,21,M,N,2023-01-03_12h06.37.672,Flanker,2022.2.4,None,
Przez najbliższe 5 minut proszę kolorować otrzymaną kolorwankę z mandalą. Naciśnij spację aby zacząć odmierzać czas,,>>>>>,0,0,0,0,,,,,0,37,37,6,,,,,,,,,,,,,,,,,,,,,522.5409347309030,522.5409347309030,right,0,0.3872933430830020,,,,,,2,21,M,N,2023-01-03_12h06.37.672,Flanker,2022.2.4,None,
Przez najbliższe 5 minut proszę kolorować otrzymaną kolorwankę z mandalą. Naciśnij spację aby zacząć odmierzać czas,,>><>>,0,0,0,0,,,,,0,38,38,35,,,,,,,,,,,,,,,,,,,,,523.9348164839900,523.9348164839900,left,0,0.5331302549457180,,,,,,2,21,M,N,2023-01-03_12h06.37.672,Flanker,2022.2.4,None,
Przez najbliższe 5 minut proszę kolorować otrzymaną kolorwankę z mandalą. Naciśnij spację aby zacząć odmierzać czas,,--<--,0,0,0,0,,,,,0,39,39,49,,,,,,,,,,,,,,,,,,,,,525.4735622738950,525.4735622738950,left,0,0.4244953340385110,,,,,,2,21,M,N,2023-01-03_12h06.37.672,Flanker,2022.2.4,None,
Przez najbliższe 5 minut proszę kolorować otrzymaną kolorwankę z mandalą. Naciśnij spację aby zacząć odmierzać czas,,<<><<,0,0,0,0,,,,,0,40,40,23,,,,,,,,,,,,,,,,,,,,,526.9087654009930,526.9087654009930,right,0,0.7213319949805740,,,,,,2,21,M,N,2023-01-03_12h06.37.672,Flanker,2022.2.4,None,
Przez najbliższe 5 minut proszę kolorować otrzymaną kolorwankę z mandalą. Naciśnij spację aby zacząć odmierzać czas,,>>>>>,0,0,0,0,,,,,0,41,41,7,,,,,,,,,,,,,,,,,,,,,528.6410446179800,528.6410446179800,right,0,0.6679287709994240,,,,,,2,21,M,N,2023-01-03_12h06.37.672,Flanker,2022.2.4,None,
Przez najbliższe 5 minut proszę kolorować otrzymaną kolorwankę z mandalą. Naciśnij spację aby zacząć odmierzać czas,,--<--,0,0,0,0,,,,,0,42,42,42,,,,,,,,,,,,,,,,,,,,,530.3158746489790,530.3158746489790,left,0,0.3849951719166710,,,,,,2,21,M,N,2023-01-03_12h06.37.672,Flanker,2022.2.4,None,
Przez najbliższe 5 minut proszę kolorować otrzymaną kolorwankę z mandalą. Naciśnij spację aby zacząć odmierzać czas,,>><>>,0,0,0,0,,,,,0,43,43,31,,,,,,,,,,,,,,,,,,,,,531.7132762999970,531.7132762999970,left,0,0.549506729003042,,,,,,2,21,M,N,2023-01-03_12h06.37.672,Flanker,2022.2.4,None,
Przez najbliższe 5 minut proszę kolorować otrzymaną kolorwankę z mandalą. Naciśnij spację aby zacząć odmierzać czas,,<<<<<,0,0,0,0,,,,,0,44,44,10,,,,,,,,,,,,,,,,,,,,,533.2795289038910,533.2795289038910,left,0,0.48749129206407800,,,,,,2,21,M,N,2023-01-03_12h06.37.672,Flanker,2022.2.4,None,
Przez najbliższe 5 minut proszę kolorować otrzymaną kolorwankę z mandalą. Naciśnij spację aby zacząć odmierzać czas,,-->--,0,0,0,0,,,,,0,45,45,54,,,,,,,,,,,,,,,,,,,,,534.7793496539820,534.7793496539820,right,0,0.6674797360319640,,,,,,2,21,M,N,2023-01-03_12h06.37.672,Flanker,2022.2.4,None,
Przez najbliższe 5 minut proszę kolorować otrzymaną kolorwankę z mandalą. Naciśnij spację aby zacząć odmierzać czas,,<<><<,0,0,0,0,,,,,0,46,46,21,,,,,,,,,,,,,,,,,,,,,536.4539996329700,536.4539996329700,right,0,0.5846808289643380,,,,,,2,21,M,N,2023-01-03_12h06.37.672,Flanker,2022.2.4,None,
Przez najbliższe 5 minut proszę kolorować otrzymaną kolorwankę z mandalą. Naciśnij spację aby zacząć odmierzać czas,,-->--,0,0,0,0,,,,,0,47,47,59,,,,,,,,,,,,,,,,,,,,,538.0412079719830,538.0412079719830,right,0,0.3546387419337410,,,,,,2,21,M,N,2023-01-03_12h06.37.672,Flanker,2022.2.4,None,
Przez najbliższe 5 minut proszę kolorować otrzymaną kolorwankę z mandalą. Naciśnij spację aby zacząć odmierzać czas,,<<<<<,0,0,0,0,,,,,0,48,48,12,,,,,,,,,,,,,,,,,,,,,539.4091196398950,539.4091196398950,left,0,0.4065033030929040,,,,,,2,21,M,N,2023-01-03_12h06.37.672,Flanker,2022.2.4,None,
Przez najbliższe 5 minut proszę kolorować otrzymaną kolorwankę z mandalą. Naciśnij spację aby zacząć odmierzać czas,,<<<<<,0,0,0,0,,,,,0,49,49,17,,,,,,,,,,,,,,,,,,,,,540.817819905933,540.817819905933,left,0,0.48081550700590000,,,,,,2,21,M,N,2023-01-03_12h06.37.672,Flanker,2022.2.4,None,
Przez najbliższe 5 minut proszę kolorować otrzymaną kolorwankę z mandalą. Naciśnij spację aby zacząć odmierzać czas,,--<--,0,0,0,0,,,,,0,50,50,45,,,,,,,,,,,,,,,,,,,,,542.3150894269350,542.3150894269350,left,0,0.43160458805505200,,,,,,2,21,M,N,2023-01-03_12h06.37.672,Flanker,2022.2.4,None,
Przez najbliższe 5 minut proszę kolorować otrzymaną kolorwankę z mandalą. Naciśnij spację aby zacząć odmierzać czas,,<<><<,0,0,0,0,,,,,0,51,51,29,,,,,,,,,,,,,,,,,,,,,543.7619270929140,543.7619270929140,right,0,0.4397662690607830,,,,,,2,21,M,N,2023-01-03_12h06.37.672,Flanker,2022.2.4,None,
Przez najbliższe 5 minut proszę kolorować otrzymaną kolorwankę z mandalą. Naciśnij spację aby zacząć odmierzać czas,,--<--,0,0,0,0,,,,,0,52,52,48,,,,,,,,,,,,,,,,,,,,,545.2068690259480,545.2068690259480,left,0,0.40066931303590500,,,,,,2,21,M,N,2023-01-03_12h06.37.672,Flanker,2022.2.4,None,
Przez najbliższe 5 minut proszę kolorować otrzymaną kolorwankę z mandalą. Naciśnij spację aby zacząć odmierzać czas,,>><>>,0,0,0,0,,,,,0,53,53,37,,,,,,,,,,,,,,,,,,,,,546.6103756899250,546.6103756899250,left,0,0.47917180601507400,,,,,,2,21,M,N,2023-01-03_12h06.37.672,Flanker,2022.2.4,None,
Przez najbliższe 5 minut proszę kolorować otrzymaną kolorwankę z mandalą. Naciśnij spację aby zacząć odmierzać czas,,--<--,0,0,0,0,,,,,0,54,54,41,,,,,,,,,,,,,,,,,,,,,548.0965371129570,548.0965371129570,left,0,0.39405779901426300,,,,,,2,21,M,N,2023-01-03_12h06.37.672,Flanker,2022.2.4,None,
Przez najbliższe 5 minut proszę kolorować otrzymaną kolorwankę z mandalą. Naciśnij spację aby zacząć odmierzać czas,,-->--,0,0,0,0,,,,,0,55,55,51,,,,,,,,,,,,,,,,,,,,,549.4965424739060,549.4965424739060,right,0,0.3938369429670270,,,,,,2,21,M,N,2023-01-03_12h06.37.672,Flanker,2022.2.4,None,
Przez najbliższe 5 minut proszę kolorować otrzymaną kolorwankę z mandalą. Naciśnij spację aby zacząć odmierzać czas,,-->--,0,0,0,0,,,,,0,56,56,50,,,,,,,,,,,,,,,,,,,,,550.9001235479960,550.9001235479960,right,0,0.4222626640694220,,,,,,2,21,M,N,2023-01-03_12h06.37.672,Flanker,2022.2.4,None,
Przez najbliższe 5 minut proszę kolorować otrzymaną kolorwankę z mandalą. Naciśnij spację aby zacząć odmierzać czas,,-->--,0,0,0,0,,,,,0,57,57,58,,,,,,,,,,,,,,,,,,,,,552.3310398049650,552.3310398049650,right,0,0.37246976408641800,,,,,,2,21,M,N,2023-01-03_12h06.37.672,Flanker,2022.2.4,None,
Przez najbliższe 5 minut proszę kolorować otrzymaną kolorwankę z mandalą. Naciśnij spację aby zacząć odmierzać czas,,--<--,0,0,0,0,,,,,0,58,58,44,,,,,,,,,,,,,,,,,,,,,553.7074172499120,553.7074172499120,left,0,0.4030010940041390,,,,,,2,21,M,N,2023-01-03_12h06.37.672,Flanker,2022.2.4,None,
Przez najbliższe 5 minut proszę kolorować otrzymaną kolorwankę z mandalą. Naciśnij spację aby zacząć odmierzać czas,,<<><<,0,0,0,0,,,,,0,59,59,22,,,,,,,,,,,,,,,,,,,,,555.1180118169870,555.1180118169870,right,0,0.5204558529658240,,,,,,2,21,M,N,2023-01-03_12h06.37.672,Flanker,2022.2.4,None,
Przez najbliższe 5 minut proszę kolorować otrzymaną kolorwankę z mandalą. Naciśnij spację aby zacząć odmierzać czas,,,0,0,0,0,,,,,,,,,,,,,,,,,,,,,,,,,,,,,,,,,,,,,,,2,21,M,N,2023-01-03_12h06.37.672,Flanker,2022.2.4,None,
Przez najbliższe 5 minut proszę kolorować otrzymaną pustą kartkę. Naciśnij spację aby zacząć odmierzać czas,<<><<,,0,1,1,1,0,0,0,2,,,,,,,,,555.6854619629450,556.6559849089240,space,18.10905863600780,574.788797997986,874.7880404659080,876.7864496349360,space,9.033455490018240,885.8447012190010,894.8322858359900,894.8322858359900,right,0,0.8004591959761460,,,,,,,,,,,,2,21,M,N,2023-01-03_12h06.37.672,Flanker,2022.2.4,None,
Przez najbliższe 5 minut proszę kolorować otrzymaną pustą kartkę. Naciśnij spację aby zacząć odmierzać czas,>><>>,,0,1,1,1,0,1,1,3,,,,,,,,,,,,,,,,,,,896.6418787859150,896.6418787859150,left,0,0.725760382018052,,,,,,,,,,,,2,21,M,N,2023-01-03_12h06.37.672,Flanker,2022.2.4,None,
Przez najbliższe 5 minut proszę kolorować otrzymaną pustą kartkę. Naciśnij spację aby zacząć odmierzać czas,-->--,,0,1,1,1,0,2,2,5,,,,,,,,,,,,,,,,,,,898.371972439927,898.371972439927,right,0,0.7927148799644780,,,,,,,,,,,,2,21,M,N,2023-01-03_12h06.37.672,Flanker,2022.2.4,None,
Przez najbliższe 5 minut proszę kolorować otrzymaną pustą kartkę. Naciśnij spację aby zacząć odmierzać czas,>>>>>,,0,1,1,1,0,3,3,1,,,,,,,,,,,,,,,,,,,900.1691353739010,900.1691353739010,right,0,0.5035228409105910,,,,,,,,,,,,2,21,M,N,2023-01-03_12h06.37.672,Flanker,2022.2.4,None,
Przez najbliższe 5 minut proszę kolorować otrzymaną pustą kartkę. Naciśnij spację aby zacząć odmierzać czas,<<<<<,,0,1,1,1,0,4,4,0,,,,,,,,,,,,,,,,,,,901.6877091339560,901.6877091339560,left,0,0.4679788709618150,,,,,,,,,,,,2,21,M,N,2023-01-03_12h06.37.672,Flanker,2022.2.4,None,
Przez najbliższe 5 minut proszę kolorować otrzymaną pustą kartkę. Naciśnij spację aby zacząć odmierzać czas,--<--,,0,1,1,1,0,5,5,4,,,,,,,,,,,,,,,,,,,903.1640661288980,903.1640661288980,left,0,0.39449755498208100,,,,,,,,,,,,2,21,M,N,2023-01-03_12h06.37.672,Flanker,2022.2.4,None,
Przez najbliższe 5 minut proszę kolorować otrzymaną pustą kartkę. Naciśnij spację aby zacząć odmierzać czas,,<<><<,0,1,1,1,,,,,0,0,0,28,,,,,,,,,,,,,,,,,,,,904.5637716819770,912.5666558858940,912.5666558858940,right,0,0.5994121849071230,911.5722720019990,,,,,2,21,M,N,2023-01-03_12h06.37.672,Flanker,2022.2.4,None,
Przez najbliższe 5 minut proszę kolorować otrzymaną pustą kartkę. Naciśnij spację aby zacząć odmierzać czas,,--<--,0,1,1,1,,,,,0,1,1,44,,,,,,,,,,,,,,,,,,,,,914.1760465028930,914.1760465028930,left,0,0.45385689102113200,,,,,,2,21,M,N,2023-01-03_12h06.37.672,Flanker,2022.2.4,None,
Przez najbliższe 5 minut proszę kolorować otrzymaną pustą kartkę. Naciśnij spację aby zacząć odmierzać czas,,>>>>>,0,1,1,1,,,,,0,2,2,8,,,,,,,,,,,,,,,,,,,,,915.6536387839590,915.6536387839590,right,0,0.4081698179943490,,,,,,2,21,M,N,2023-01-03_12h06.37.672,Flanker,2022.2.4,None,
Przez najbliższe 5 minut proszę kolorować otrzymaną pustą kartkę. Naciśnij spację aby zacząć odmierzać czas,,>>>>>,0,1,1,1,,,,,0,3,3,7,,,,,,,,,,,,,,,,,,,,,917.0708139449130,917.0708139449130,right,0,0.43596103391610100,,,,,,2,21,M,N,2023-01-03_12h06.37.672,Flanker,2022.2.4,None,
Przez najbliższe 5 minut proszę kolorować otrzymaną pustą kartkę. Naciśnij spację aby zacząć odmierzać czas,,>><>>,0,1,1,1,,,,,0,4,4,32,,,,,,,,,,,,,,,,,,,,,918.5099026989190,918.5099026989190,left,0,0.5008033190388230,,,,,,2,21,M,N,2023-01-03_12h06.37.672,Flanker,2022.2.4,None,
Przez najbliższe 5 minut proszę kolorować otrzymaną pustą kartkę. Naciśnij spację aby zacząć odmierzać czas,,--<--,0,1,1,1,,,,,0,5,5,40,,,,,,,,,,,,,,,,,,,,,920.0143838939260,920.0143838939260,left,0,0.3872754260664810,,,,,,2,21,M,N,2023-01-03_12h06.37.672,Flanker,2022.2.4,None,
Przez najbliższe 5 minut proszę kolorować otrzymaną pustą kartkę. Naciśnij spację aby zacząć odmierzać czas,,<<><<,0,1,1,1,,,,,0,6,6,21,,,,,,,,,,,,,,,,,,,,,921.4173151499130,921.4173151499130,right,0,0.43735338700935200,,,,,,2,21,M,N,2023-01-03_12h06.37.672,Flanker,2022.2.4,None,
Przez najbliższe 5 minut proszę kolorować otrzymaną pustą kartkę. Naciśnij spację aby zacząć odmierzać czas,,>><>>,0,1,1,1,,,,,0,7,7,33,,,,,,,,,,,,,,,,,,,,,922.8652569149850,922.8652569149850,left,0,0.5103773240698500,,,,,,2,21,M,N,2023-01-03_12h06.37.672,Flanker,2022.2.4,None,
Przez najbliższe 5 minut proszę kolorować otrzymaną pustą kartkę. Naciśnij spację aby zacząć odmierzać czas,,<<<<<,0,1,1,1,,,,,0,8,8,10,,,,,,,,,,,,,,,,,,,,,924.4028321559310,924.4028321559310,left,0,0.4017351099755620,,,,,,2,21,M,N,2023-01-03_12h06.37.672,Flanker,2022.2.4,None,
Przez najbliższe 5 minut proszę kolorować otrzymaną pustą kartkę. Naciśnij spację aby zacząć odmierzać czas,,-->--,0,1,1,1,,,,,0,9,9,52,,,,,,,,,,,,,,,,,,,,,925.8189426229800,925.8189426229800,right,0,0.36569255602080400,,,,,,2,21,M,N,2023-01-03_12h06.37.672,Flanker,2022.2.4,None,
Przez najbliższe 5 minut proszę kolorować otrzymaną pustą kartkę. Naciśnij spację aby zacząć odmierzać czas,,<<><<,0,1,1,1,,,,,0,10,10,23,,,,,,,,,,,,,,,,,,,,,927.2009085109460,927.2009085109460,right,0,0.5697811050340530,,,,,,2,21,M,N,2023-01-03_12h06.37.672,Flanker,2022.2.4,None,
Przez najbliższe 5 minut proszę kolorować otrzymaną pustą kartkę. Naciśnij spację aby zacząć odmierzać czas,,>><>>,0,1,1,1,,,,,0,11,11,36,,,,,,,,,,,,,,,,,,,,,928.7873244519580,928.7873244519580,left,0,0.49824690201785400,,,,,,2,21,M,N,2023-01-03_12h06.37.672,Flanker,2022.2.4,None,
Przez najbliższe 5 minut proszę kolorować otrzymaną pustą kartkę. Naciśnij spację aby zacząć odmierzać czas,,>><>>,0,1,1,1,,,,,0,12,12,37,,,,,,,,,,,,,,,,,,,,,930.2825620499210,930.2825620499210,left,0,0.5659260839456690,,,,,,2,21,M,N,2023-01-03_12h06.37.672,Flanker,2022.2.4,None,
Przez najbliższe 5 minut proszę kolorować otrzymaną pustą kartkę. Naciśnij spację aby zacząć odmierzać czas,,<<><<,0,1,1,1,,,,,0,13,13,25,,,,,,,,,,,,,,,,,,,,,931.8539649279560,931.8539649279560,right,0,0.6065276849549260,,,,,,2,21,M,N,2023-01-03_12h06.37.672,Flanker,2022.2.4,None,
Przez najbliższe 5 minut proszę kolorować otrzymaną pustą kartkę. Naciśnij spację aby zacząć odmierzać czas,,--<--,0,1,1,1,,,,,0,14,14,45,,,,,,,,,,,,,,,,,,,,,933.4842065799750,933.4842065799750,left,0,0.3702361109899360,,,,,,2,21,M,N,2023-01-03_12h06.37.672,Flanker,2022.2.4,None,
Przez najbliższe 5 minut proszę kolorować otrzymaną pustą kartkę. Naciśnij spację aby zacząć odmierzać czas,,<<><<,0,1,1,1,,,,,0,15,15,22,,,,,,,,,,,,,,,,,,,,,934.85956424498,934.85956424498,right,0,0.4947763590607790,,,,,,2,21,M,N,2023-01-03_12h06.37.672,Flanker,2022.2.4,None,
Przez najbliższe 5 minut proszę kolorować otrzymaną pustą kartkę. Naciśnij spację aby zacząć odmierzać czas,,>>>>>,0,1,1,1,,,,,0,16,16,3,,,,,,,,,,,,,,,,,,,,,936.3577611949300,936.3577611949300,right,0,0.4425999888917430,,,,,,2,21,M,N,2023-01-03_12h06.37.672,Flanker,2022.2.4,None,
Przez najbliższe 5 minut proszę kolorować otrzymaną pustą kartkę. Naciśnij spację aby zacząć odmierzać czas,,-->--,0,1,1,1,,,,,0,17,17,59,,,,,,,,,,,,,,,,,,,,,937.8093728189120,937.8093728189120,right,0,0.5869091699132700,,,,,,2,21,M,N,2023-01-03_12h06.37.672,Flanker,2022.2.4,None,
Przez najbliższe 5 minut proszę kolorować otrzymaną pustą kartkę. Naciśnij spację aby zacząć odmierzać czas,,<<<<<,0,1,1,1,,,,,0,18,18,14,,,,,,,,,,,,,,,,,,,,,939.405358975986,939.405358975986,left,0,0.3598554079653700,,,,,,2,21,M,N,2023-01-03_12h06.37.672,Flanker,2022.2.4,None,
Przez najbliższe 5 minut proszę kolorować otrzymaną pustą kartkę. Naciśnij spację aby zacząć odmierzać czas,,<<<<<,0,1,1,1,,,,,0,19,19,13,,,,,,,,,,,,,,,,,,,,,940.7685097329090,940.7685097329090,left,0,0.38467713794671,,,,,,2,21,M,N,2023-01-03_12h06.37.672,Flanker,2022.2.4,None,
Przez najbliższe 5 minut proszę kolorować otrzymaną pustą kartkę. Naciśnij spację aby zacząć odmierzać czas,,<<<<<,0,1,1,1,,,,,0,20,20,11,,,,,,,,,,,,,,,,,,,,,942.1624105959200,942.1624105959200,left,0,0.4187459599925210,,,,,,2,21,M,N,2023-01-03_12h06.37.672,Flanker,2022.2.4,None,
Przez najbliższe 5 minut proszę kolorować otrzymaną pustą kartkę. Naciśnij spację aby zacząć odmierzać czas,,>>>>>,0,1,1,1,,,,,0,21,21,9,,,,,,,,,,,,,,,,,,,,,943.6039182289970,943.6039182289970,right,0,0.2592937480658290,,,,,,2,21,M,N,2023-01-03_12h06.37.672,Flanker,2022.2.4,None,
Przez najbliższe 5 minut proszę kolorować otrzymaną pustą kartkę. Naciśnij spację aby zacząć odmierzać czas,,>>>>>,0,1,1,1,,,,,0,22,22,1,,,,,,,,,,,,,,,,,,,,,944.8682618539320,944.8682618539320,right,0,0.3348733320599420,,,,,,2,21,M,N,2023-01-03_12h06.37.672,Flanker,2022.2.4,None,
Przez najbliższe 5 minut proszę kolorować otrzymaną pustą kartkę. Naciśnij spację aby zacząć odmierzać czas,,>>>>> ,0,1,1,1,,,,,0,23,23,5,,,,,,,,,,,,,,,,,,,,,946.2128498199160,946.2128498199160,right,0,0.39216631709132300,,,,,,2,21,M,N,2023-01-03_12h06.37.672,Flanker,2022.2.4,None,
Przez najbliższe 5 minut proszę kolorować otrzymaną pustą kartkę. Naciśnij spację aby zacząć odmierzać czas,,-->--,0,1,1,1,,,,,0,24,24,56,,,,,,,,,,,,,,,,,,,,,947.618782565929,947.618782565929,right,0,0.5573099680477750,,,,,,2,21,M,N,2023-01-03_12h06.37.672,Flanker,2022.2.4,None,
Przez najbliższe 5 minut proszę kolorować otrzymaną pustą kartkę. Naciśnij spację aby zacząć odmierzać czas,,>><>>,0,1,1,1,,,,,0,25,25,35,,,,,,,,,,,,,,,,,,,,,949.1791682369080,949.1791682369080,left,0,0.4146774460095910,,,,,,2,21,M,N,2023-01-03_12h06.37.672,Flanker,2022.2.4,None,
Przez najbliższe 5 minut proszę kolorować otrzymaną pustą kartkę. Naciśnij spację aby zacząć odmierzać czas,,>>>>>,0,1,1,1,,,,,0,26,26,2,,,,,,,,,,,,,,,,,,,,,950.6083182519070,950.6083182519070,right,0,0.5906076929531990,,,,,,2,21,M,N,2023-01-03_12h06.37.672,Flanker,2022.2.4,None,
Przez najbliższe 5 minut proszę kolorować otrzymaną pustą kartkę. Naciśnij spację aby zacząć odmierzać czas,,<<><<,0,1,1,1,,,,,0,27,27,26,,,,,,,,,,,,,,,,,,,,,952.2082317819590,952.2082317819590,right,0,0.500750239007175,,,,,,2,21,M,N,2023-01-03_12h06.37.672,Flanker,2022.2.4,None,
Przez najbliższe 5 minut proszę kolorować otrzymaną pustą kartkę. Naciśnij spację aby zacząć odmierzać czas,,>><>>,0,1,1,1,,,,,0,28,28,31,,,,,,,,,,,,,,,,,,,,,953.7302317589060,953.7302317589060,left,0,0.4176848450442780,,,,,,2,21,M,N,2023-01-03_12h06.37.672,Flanker,2022.2.4,None,
Przez najbliższe 5 minut proszę kolorować otrzymaną pustą kartkę. Naciśnij spację aby zacząć odmierzać czas,,>>>>>,0,1,1,1,,,,,0,29,29,4,,,,,,,,,,,,,,,,,,,,,955.1472534169440,955.1472534169440,right,0,0.2874945439398290,,,,,,2,21,M,N,2023-01-03_12h06.37.672,Flanker,2022.2.4,None,
Przez najbliższe 5 minut proszę kolorować otrzymaną pustą kartkę. Naciśnij spację aby zacząć odmierzać czas,,<<><<,0,1,1,1,,,,,0,30,30,27,,,,,,,,,,,,,,,,,,,,,956.4519886618950,956.4519886618950,right,0,0.44504780299030200,,,,,,2,21,M,N,2023-01-03_12h06.37.672,Flanker,2022.2.4,None,
Przez najbliższe 5 minut proszę kolorować otrzymaną pustą kartkę. Naciśnij spację aby zacząć odmierzać czas,,>><>>,0,1,1,1,,,,,0,31,31,34,,,,,,,,,,,,,,,,,,,,,957.9090585379160,957.9090585379160,left,0,0.502736859023571,,,,,,2,21,M,N,2023-01-03_12h06.37.672,Flanker,2022.2.4,None,
Przez najbliższe 5 minut proszę kolorować otrzymaną pustą kartkę. Naciśnij spację aby zacząć odmierzać czas,,<<<<<,0,1,1,1,,,,,0,32,32,17,,,,,,,,,,,,,,,,,,,,,959.4289995769500,959.4289995769500,left,0,0.4197453479282560,,,,,,2,21,M,N,2023-01-03_12h06.37.672,Flanker,2022.2.4,None,
Przez najbliższe 5 minut proszę kolorować otrzymaną pustą kartkę. Naciśnij spację aby zacząć odmierzać czas,,>>>>>,0,1,1,1,,,,,0,33,33,6,,,,,,,,,,,,,,,,,,,,,960.8719950279920,960.8719950279920,right,0,0.30079873802606000,,,,,,2,21,M,N,2023-01-03_12h06.37.672,Flanker,2022.2.4,None,
Przez najbliższe 5 minut proszę kolorować otrzymaną pustą kartkę. Naciśnij spację aby zacząć odmierzać czas,,<<><<,0,1,1,1,,,,,0,34,34,20,,,,,,,,,,,,,,,,,,,,,962.191407162929,962.191407162929,right,0,0.45632531901355800,,,,,,2,21,M,N,2023-01-03_12h06.37.672,Flanker,2022.2.4,None,
Przez najbliższe 5 minut proszę kolorować otrzymaną pustą kartkę. Naciśnij spację aby zacząć odmierzać czas,,--<--,0,1,1,1,,,,,0,35,35,43,,,,,,,,,,,,,,,,,,,,,963.6617157500000,963.6617157500000,left,0,0.3408484640531240,,,,,,2,21,M,N,2023-01-03_12h06.37.672,Flanker,2022.2.4,None,
Przez najbliższe 5 minut proszę kolorować otrzymaną pustą kartkę. Naciśnij spację aby zacząć odmierzać czas,,--<--,0,1,1,1,,,,,0,36,36,48,,,,,,,,,,,,,,,,,,,,,965.0185940049120,965.0185940049120,left,0,0.5960759740555660,,,,,,2,21,M,N,2023-01-03_12h06.37.672,Flanker,2022.2.4,None,
Przez najbliższe 5 minut proszę kolorować otrzymaną pustą kartkę. Naciśnij spację aby zacząć odmierzać czas,,>><>>,0,1,1,1,,,,,0,37,37,38,,,,,,,,,,,,,,,,,,,,,966.6294404329970,966.6294404329970,left,0,0.5713186389766630,,,,,,2,21,M,N,2023-01-03_12h06.37.672,Flanker,2022.2.4,None,
Przez najbliższe 5 minut proszę kolorować otrzymaną pustą kartkę. Naciśnij spację aby zacząć odmierzać czas,,-->--,0,1,1,1,,,,,0,38,38,50,,,,,,,,,,,,,,,,,,,,,968.2097583399150,968.2097583399150,right,0,0.3967930149519820,,,,,,2,21,M,N,2023-01-03_12h06.37.672,Flanker,2022.2.4,None,
Przez najbliższe 5 minut proszę kolorować otrzymaną pustą kartkę. Naciśnij spację aby zacząć odmierzać czas,,--<--,0,1,1,1,,,,,0,39,39,49,,,,,,,,,,,,,,,,,,,,,969.6075720679950,969.6075720679950,left,0,0.336986573995091,,,,,,2,21,M,N,2023-01-03_12h06.37.672,Flanker,2022.2.4,None,
Przez najbliższe 5 minut proszę kolorować otrzymaną pustą kartkę. Naciśnij spację aby zacząć odmierzać czas,,<<<<<,0,1,1,1,,,,,0,40,40,12,,,,,,,,,,,,,,,,,,,,,970.9476716918870,970.9476716918870,left,0,0.3846916010370480,,,,,,2,21,M,N,2023-01-03_12h06.37.672,Flanker,2022.2.4,None,
Przez najbliższe 5 minut proszę kolorować otrzymaną pustą kartkę. Naciśnij spację aby zacząć odmierzać czas,,>><>>,0,1,1,1,,,,,0,41,41,30,,,,,,,,,,,,,,,,,,,,,972.3382556180000,972.3382556180000,left,0,0.45430272398516500,,,,,,2,21,M,N,2023-01-03_12h06.37.672,Flanker,2022.2.4,None,
Przez najbliższe 5 minut proszę kolorować otrzymaną pustą kartkę. Naciśnij spację aby zacząć odmierzać czas,,-->--,0,1,1,1,,,,,0,42,42,58,,,,,,,,,,,,,,,,,,,,,973.8055057579190,973.8055057579190,right,0,0.41095713002141600,,,,,,2,21,M,N,2023-01-03_12h06.37.672,Flanker,2022.2.4,None,
Przez najbliższe 5 minut proszę kolorować otrzymaną pustą kartkę. Naciśnij spację aby zacząć odmierzać czas,,<<<<<,0,1,1,1,,,,,0,43,43,19,,,,,,,,,,,,,,,,,,,,,975.218368763919,975.218368763919,left,0,0.3700855040224270,,,,,,2,21,M,N,2023-01-03_12h06.37.672,Flanker,2022.2.4,None,
Przez najbliższe 5 minut proszę kolorować otrzymaną pustą kartkę. Naciśnij spację aby zacząć odmierzać czas,,<<><<,0,1,1,1,,,,,0,44,44,29,,,,,,,,,,,,,,,,,,,,,976.6017127649390,976.6017127649390,right,0,0.44062178302556300,,,,,,2,21,M,N,2023-01-03_12h06.37.672,Flanker,2022.2.4,None,
Przez najbliższe 5 minut proszę kolorować otrzymaną pustą kartkę. Naciśnij spację aby zacząć odmierzać czas,,<<><<,0,1,1,1,,,,,0,45,45,24,,,,,,,,,,,,,,,,,,,,,978.0545527839570,978.0545527839570,right,0,0.5378102960530670,,,,,,2,21,M,N,2023-01-03_12h06.37.672,Flanker,2022.2.4,None,
Przez najbliższe 5 minut proszę kolorować otrzymaną pustą kartkę. Naciśnij spację aby zacząć odmierzać czas,,--<--,0,1,1,1,,,,,0,46,46,47,,,,,,,,,,,,,,,,,,,,,979.5913914559640,979.5913914559640,left,0,0.36695957591291500,,,,,,2,21,M,N,2023-01-03_12h06.37.672,Flanker,2022.2.4,None,
Przez najbliższe 5 minut proszę kolorować otrzymaną pustą kartkę. Naciśnij spację aby zacząć odmierzać czas,,<<<<<,0,1,1,1,,,,,0,47,47,16,,,,,,,,,,,,,,,,,,,,,980.9737600629450,980.9737600629450,left,0,0.3995912140235310,,,,,,2,21,M,N,2023-01-03_12h06.37.672,Flanker,2022.2.4,None,
Przez najbliższe 5 minut proszę kolorować otrzymaną pustą kartkę. Naciśnij spację aby zacząć odmierzać czas,,-->--,0,1,1,1,,,,,0,48,48,53,,,,,,,,,,,,,,,,,,,,,982.3851235179460,982.3851235179460,right,0,0.400185085949488,,,,,,2,21,M,N,2023-01-03_12h06.37.672,Flanker,2022.2.4,None,
Przez najbliższe 5 minut proszę kolorować otrzymaną pustą kartkę. Naciśnij spację aby zacząć odmierzać czas,,-->--,0,1,1,1,,,,,0,49,49,55,,,,,,,,,,,,,,,,,,,,,983.7840218589410,983.7840218589410,right,0,0.3161772870225830,,,,,,2,21,M,N,2023-01-03_12h06.37.672,Flanker,2022.2.4,None,
Przez najbliższe 5 minut proszę kolorować otrzymaną pustą kartkę. Naciśnij spację aby zacząć odmierzać czas,,-->--,0,1,1,1,,,,,0,50,50,51,,,,,,,,,,,,,,,,,,,,,985.1018499429340,985.1018499429340,right,0,0.3132429789984600,,,,,,2,21,M,N,2023-01-03_12h06.37.672,Flanker,2022.2.4,None,
Przez najbliższe 5 minut proszę kolorować otrzymaną pustą kartkę. Naciśnij spację aby zacząć odmierzać czas,,--<--,0,1,1,1,,,,,0,51,51,42,,,,,,,,,,,,,,,,,,,,,986.4261175129800,986.4261175129800,left,0,0.38097474502865200,,,,,,2,21,M,N,2023-01-03_12h06.37.672,Flanker,2022.2.4,None,
Przez najbliższe 5 minut proszę kolorować otrzymaną pustą kartkę. Naciśnij spację aby zacząć odmierzać czas,,-->--,0,1,1,1,,,,,0,52,52,54,,,,,,,,,,,,,,,,,,,,,987.8124044979920,987.8124044979920,right,0,0.3798119720304390,,,,,,2,21,M,N,2023-01-03_12h06.37.672,Flanker,2022.2.4,None,
Przez najbliższe 5 minut proszę kolorować otrzymaną pustą kartkę. Naciśnij spację aby zacząć odmierzać czas,,--<--,0,1,1,1,,,,,0,53,53,41,,,,,,,,,,,,,,,,,,,,,989.2072677669350,989.2072677669350,left,0,0.42793018696829700,,,,,,2,21,M,N,2023-01-03_12h06.37.672,Flanker,2022.2.4,None,
Przez najbliższe 5 minut proszę kolorować otrzymaną pustą kartkę. Naciśnij spację aby zacząć odmierzać czas,,-->--,0,1,1,1,,,,,0,54,54,57,,,,,,,,,,,,,,,,,,,,,990.6498803439320,990.6498803439320,right,0,0.3321670440491290,,,,,,2,21,M,N,2023-01-03_12h06.37.672,Flanker,2022.2.4,None,
Przez najbliższe 5 minut proszę kolorować otrzymaną pustą kartkę. Naciśnij spację aby zacząć odmierzać czas,,>>>>>,0,1,1,1,,,,,0,55,55,0,,,,,,,,,,,,,,,,,,,,,991.9899269989690,991.9899269989690,right,0,0.3794168980093670,,,,,,2,21,M,N,2023-01-03_12h06.37.672,Flanker,2022.2.4,None,
Przez najbliższe 5 minut proszę kolorować otrzymaną pustą kartkę. Naciśnij spację aby zacząć odmierzać czas,,--<--,0,1,1,1,,,,,0,56,56,46,,,,,,,,,,,,,,,,,,,,,993.3848745279250,993.3848745279250,left,0,0.39520105300471200,,,,,,2,21,M,N,2023-01-03_12h06.37.672,Flanker,2022.2.4,None,
Przez najbliższe 5 minut proszę kolorować otrzymaną pustą kartkę. Naciśnij spację aby zacząć odmierzać czas,,<<<<<,0,1,1,1,,,,,0,57,57,18,,,,,,,,,,,,,,,,,,,,,994.7904343348930,994.7904343348930,left,0,0.3876012989785520,,,,,,2,21,M,N,2023-01-03_12h06.37.672,Flanker,2022.2.4,None,
Przez najbliższe 5 minut proszę kolorować otrzymaną pustą kartkę. Naciśnij spację aby zacząć odmierzać czas,,<<<<<,0,1,1,1,,,,,0,58,58,15,,,,,,,,,,,,,,,,,,,,,996.1915313019420,996.1915313019420,left,0,0.3775675270007920,,,,,,2,21,M,N,2023-01-03_12h06.37.672,Flanker,2022.2.4,None,
Przez najbliższe 5 minut proszę kolorować otrzymaną pustą kartkę. Naciśnij spację aby zacząć odmierzać czas,,>><>>,0,1,1,1,,,,,0,59,59,39,,,,,,,,,,,,,,,,,,,,,997.5797662929400,997.5797662929400,left,0,0.44213614391628700,,,,,,2,21,M,N,2023-01-03_12h06.37.672,Flanker,2022.2.4,None,
Przez najbliższe 5 minut proszę kolorować otrzymaną pustą kartkę. Naciśnij spację aby zacząć odmierzać czas,,,0,1,1,1,,,,,,,,,,,,,,,,,,,,,,,,,,,,,,,,,,,,,,,2,21,M,N,2023-01-03_12h06.37.672,Flanker,2022.2.4,None,
,,,,,,,,,,,,,,,,,,,,,,,,,,,,,,,,,,,,,,,,,999.0290452189510,999.0290452189510,space,6.128367403987800,2,21,M,N,2023-01-03_12h06.37.672,Flanker,2022.2.4,None,