kolorowanka,Example,Stimuli,proby.thisRepN,proby.thisTrialN,proby.thisN,proby.thisIndex,zapoznanie.thisRepN,zapoznanie.thisTrialN,zapoznanie.thisN,zapoznanie.thisIndex,Warunki.thisRepN,Warunki.thisTrialN,Warunki.thisN,Warunki.thisIndex,Intro.started,Intro_resp.started,Intro_resp.keys,Intro_resp.rt,Kolorowanie1.started,starttt.started,starttt.keys,starttt.rt,koloruj.started,Instruction.started,key_resp.started,key_resp.keys,key_resp.rt,Wyjasnienie.started,text.started,odp_przyk.started,odp_przyk.keys,odp_przyk.corr,odp_przyk.rt,zapo.started,Zadanie.started,Odp.started,Odp.keys,Odp.corr,Odp.rt,zapo.stopped,thanks.started,KONIEC.started,KONIEC.keys,KONIEC.rt,participant,Wiek (w latach),Płeć (K/M),Entropia,date,expName,psychopyVersion,frameRate,
,,,,,,,,,,,,,,,25.93088163000360,27.90401117700090,space,12.857218863995500,,,,,,,,,,,,,,,,,,,,,,,,,,,30,21,K,W,2023-01-13_13h29.39.636,Flanker,2022.2.4,None,
Przez najbliższe 5 minut proszę kolorować otrzymaną pustą kartkę. Naciśnij spację aby zacząć odmierzać czas,<<><<,,0,0,0,1,0,0,0,2,,,,,,,,,40.799196056003000,41.76117480600080,space,27.25862543898980,69.04570863299890,369.04284186300400,371.03278534200200,space,19.58655152800200,390.6509429709990,399.6443008649950,399.6443008649950,right,0,1.2048704949993400,,,,,,,,,,,,30,21,K,W,2023-01-13_13h29.39.636,Flanker,2022.2.4,None,
Przez najbliższe 5 minut proszę kolorować otrzymaną pustą kartkę. Naciśnij spację aby zacząć odmierzać czas,-->--,,0,0,0,1,0,1,1,5,,,,,,,,,,,,,,,,,,,401.8594654609920,401.8594654609920,right,0,0.6023459569987610,,,,,,,,,,,,30,21,K,W,2023-01-13_13h29.39.636,Flanker,2022.2.4,None,
Przez najbliższe 5 minut proszę kolorować otrzymaną pustą kartkę. Naciśnij spację aby zacząć odmierzać czas,>><>>,,0,0,0,1,0,2,2,3,,,,,,,,,,,,,,,,,,,403.4711613559920,403.4711613559920,left,0,0.5487292570032880,,,,,,,,,,,,30,21,K,W,2023-01-13_13h29.39.636,Flanker,2022.2.4,None,
Przez najbliższe 5 minut proszę kolorować otrzymaną pustą kartkę. Naciśnij spację aby zacząć odmierzać czas,--<--,,0,0,0,1,0,3,3,4,,,,,,,,,,,,,,,,,,,405.0234612630010,405.0234612630010,left,0,0.46430111399968200,,,,,,,,,,,,30,21,K,W,2023-01-13_13h29.39.636,Flanker,2022.2.4,None,
Przez najbliższe 5 minut proszę kolorować otrzymaną pustą kartkę. Naciśnij spację aby zacząć odmierzać czas,<<<<<,,0,0,0,1,0,4,4,0,,,,,,,,,,,,,,,,,,,406.49255035299600,406.49255035299600,left,0,0.43616275099339000,,,,,,,,,,,,30,21,K,W,2023-01-13_13h29.39.636,Flanker,2022.2.4,None,
Przez najbliższe 5 minut proszę kolorować otrzymaną pustą kartkę. Naciśnij spację aby zacząć odmierzać czas,>>>>>,,0,0,0,1,0,5,5,1,,,,,,,,,,,,,,,,,,,407.94250289700000,407.94250289700000,right,0,0.41229219899105400,,,,,,,,,,,,30,21,K,W,2023-01-13_13h29.39.636,Flanker,2022.2.4,None,
Przez najbliższe 5 minut proszę kolorować otrzymaną pustą kartkę. Naciśnij spację aby zacząć odmierzać czas,,<<<<<,0,0,0,1,,,,,0,0,0,14,,,,,,,,,,,,,,,,,,,,409.3668520509960,417.3628003060000,417.3628003060000,left,0,0.5065450349939060,416.38168055799900,,,,,30,21,K,W,2023-01-13_13h29.39.636,Flanker,2022.2.4,None,
Przez najbliższe 5 minut proszę kolorować otrzymaną pustą kartkę. Naciśnij spację aby zacząć odmierzać czas,,>>>>>,0,0,0,1,,,,,0,1,1,7,,,,,,,,,,,,,,,,,,,,,418.87150599999600,418.87150599999600,right,0,0.36553665599785700,,,,,,30,21,K,W,2023-01-13_13h29.39.636,Flanker,2022.2.4,None,
Przez najbliższe 5 minut proszę kolorować otrzymaną pustą kartkę. Naciśnij spację aby zacząć odmierzać czas,,<<<<<,0,0,0,1,,,,,0,2,2,16,,,,,,,,,,,,,,,,,,,,,420.2454076229920,420.2454076229920,left,0,0.3766718340048100,,,,,,30,21,K,W,2023-01-13_13h29.39.636,Flanker,2022.2.4,None,
Przez najbliższe 5 minut proszę kolorować otrzymaną pustą kartkę. Naciśnij spację aby zacząć odmierzać czas,,<<><<,0,0,0,1,,,,,0,3,3,29,,,,,,,,,,,,,,,,,,,,,421.6232478879970,421.6232478879970,right,0,0.4456741250032790,,,,,,30,21,K,W,2023-01-13_13h29.39.636,Flanker,2022.2.4,None,
Przez najbliższe 5 minut proszę kolorować otrzymaną pustą kartkę. Naciśnij spację aby zacząć odmierzać czas,,>><>>,0,0,0,1,,,,,0,4,4,33,,,,,,,,,,,,,,,,,,,,,423.0707913630030,423.0707913630030,left,0,0.46218136500101500,,,,,,30,21,K,W,2023-01-13_13h29.39.636,Flanker,2022.2.4,None,
Przez najbliższe 5 minut proszę kolorować otrzymaną pustą kartkę. Naciśnij spację aby zacząć odmierzać czas,,--<--,0,0,0,1,,,,,0,5,5,49,,,,,,,,,,,,,,,,,,,,,424.54327059300000,424.54327059300000,left,0,0.4765137320064240,,,,,,30,21,K,W,2023-01-13_13h29.39.636,Flanker,2022.2.4,None,
Przez najbliższe 5 minut proszę kolorować otrzymaną pustą kartkę. Naciśnij spację aby zacząć odmierzać czas,,>>>>>,0,0,0,1,,,,,0,6,6,6,,,,,,,,,,,,,,,,,,,,,426.02641331299700,426.02641331299700,right,0,0.3603379490086810,,,,,,30,21,K,W,2023-01-13_13h29.39.636,Flanker,2022.2.4,None,
Przez najbliższe 5 minut proszę kolorować otrzymaną pustą kartkę. Naciśnij spację aby zacząć odmierzać czas,,>><>>,0,0,0,1,,,,,0,7,7,34,,,,,,,,,,,,,,,,,,,,,427.3923977849920,427.3923977849920,left,0,0.40048715799639500,,,,,,30,21,K,W,2023-01-13_13h29.39.636,Flanker,2022.2.4,None,
Przez najbliższe 5 minut proszę kolorować otrzymaną pustą kartkę. Naciśnij spację aby zacząć odmierzać czas,,-->--,0,0,0,1,,,,,0,8,8,50,,,,,,,,,,,,,,,,,,,,,428.8088472550010,428.8088472550010,right,0,0.3498308229900430,,,,,,30,21,K,W,2023-01-13_13h29.39.636,Flanker,2022.2.4,None,
Przez najbliższe 5 minut proszę kolorować otrzymaną pustą kartkę. Naciśnij spację aby zacząć odmierzać czas,,>>>>>,0,0,0,1,,,,,0,9,9,3,,,,,,,,,,,,,,,,,,,,,430.1643677319950,430.1643677319950,right,0,0.44242897200456400,,,,,,30,21,K,W,2023-01-13_13h29.39.636,Flanker,2022.2.4,None,
Przez najbliższe 5 minut proszę kolorować otrzymaną pustą kartkę. Naciśnij spację aby zacząć odmierzać czas,,--<--,0,0,0,1,,,,,0,10,10,40,,,,,,,,,,,,,,,,,,,,,431.6157761959910,431.6157761959910,left,0,0.4327897509938340,,,,,,30,21,K,W,2023-01-13_13h29.39.636,Flanker,2022.2.4,None,
Przez najbliższe 5 minut proszę kolorować otrzymaną pustą kartkę. Naciśnij spację aby zacząć odmierzać czas,,--<--,0,0,0,1,,,,,0,11,11,47,,,,,,,,,,,,,,,,,,,,,433.06774694199000,433.06774694199000,left,0,0.40711756399832700,,,,,,30,21,K,W,2023-01-13_13h29.39.636,Flanker,2022.2.4,None,
Przez najbliższe 5 minut proszę kolorować otrzymaną pustą kartkę. Naciśnij spację aby zacząć odmierzać czas,,>><>>,0,0,0,1,,,,,0,12,12,35,,,,,,,,,,,,,,,,,,,,,434.4888947309960,434.4888947309960,left,0,0.5108363420004030,,,,,,30,21,K,W,2023-01-13_13h29.39.636,Flanker,2022.2.4,None,
Przez najbliższe 5 minut proszę kolorować otrzymaną pustą kartkę. Naciśnij spację aby zacząć odmierzać czas,,>><>>,0,0,0,1,,,,,0,13,13,39,,,,,,,,,,,,,,,,,,,,,436.0155693330020,436.0155693330020,left,0,0.47219964300165900,,,,,,30,21,K,W,2023-01-13_13h29.39.636,Flanker,2022.2.4,None,
Przez najbliższe 5 minut proszę kolorować otrzymaną pustą kartkę. Naciśnij spację aby zacząć odmierzać czas,,--<--,0,0,0,1,,,,,0,14,14,43,,,,,,,,,,,,,,,,,,,,,437.503734154001,437.503734154001,left,0,0.38689121400238900,,,,,,30,21,K,W,2023-01-13_13h29.39.636,Flanker,2022.2.4,None,
Przez najbliższe 5 minut proszę kolorować otrzymaną pustą kartkę. Naciśnij spację aby zacząć odmierzać czas,,--<--,0,0,0,1,,,,,0,15,15,46,,,,,,,,,,,,,,,,,,,,,438.9005844170020,438.9005844170020,left,0,0.38901652199274400,,,,,,30,21,K,W,2023-01-13_13h29.39.636,Flanker,2022.2.4,None,
Przez najbliższe 5 minut proszę kolorować otrzymaną pustą kartkę. Naciśnij spację aby zacząć odmierzać czas,,>><>>,0,0,0,1,,,,,0,16,16,32,,,,,,,,,,,,,,,,,,,,,440.29553871600400,440.29553871600400,left,0,0.5141056590073280,,,,,,30,21,K,W,2023-01-13_13h29.39.636,Flanker,2022.2.4,None,
Przez najbliższe 5 minut proszę kolorować otrzymaną pustą kartkę. Naciśnij spację aby zacząć odmierzać czas,,-->--,0,0,0,1,,,,,0,17,17,58,,,,,,,,,,,,,,,,,,,,,441.82024329999700,441.82024329999700,right,0,0.49619876898941600,,,,,,30,21,K,W,2023-01-13_13h29.39.636,Flanker,2022.2.4,None,
Przez najbliższe 5 minut proszę kolorować otrzymaną pustą kartkę. Naciśnij spację aby zacząć odmierzać czas,,-->--,0,0,0,1,,,,,0,18,18,57,,,,,,,,,,,,,,,,,,,,,443.33181846699200,443.33181846699200,right,0,0.36782710399711500,,,,,,30,21,K,W,2023-01-13_13h29.39.636,Flanker,2022.2.4,None,
Przez najbliższe 5 minut proszę kolorować otrzymaną pustą kartkę. Naciśnij spację aby zacząć odmierzać czas,,-->--,0,0,0,1,,,,,0,19,19,53,,,,,,,,,,,,,,,,,,,,,444.7152482550010,444.7152482550010,right,0,0.48515952499292300,,,,,,30,21,K,W,2023-01-13_13h29.39.636,Flanker,2022.2.4,None,
Przez najbliższe 5 minut proszę kolorować otrzymaną pustą kartkę. Naciśnij spację aby zacząć odmierzać czas,,<<<<<,0,0,0,1,,,,,0,20,20,18,,,,,,,,,,,,,,,,,,,,,446.2156973879900,446.2156973879900,left,0,0.47971925100137000,,,,,,30,21,K,W,2023-01-13_13h29.39.636,Flanker,2022.2.4,None,
Przez najbliższe 5 minut proszę kolorować otrzymaną pustą kartkę. Naciśnij spację aby zacząć odmierzać czas,,--<--,0,0,0,1,,,,,0,21,21,44,,,,,,,,,,,,,,,,,,,,,447.70915875199700,447.70915875199700,left,0,0.44628226599888900,,,,,,30,21,K,W,2023-01-13_13h29.39.636,Flanker,2022.2.4,None,
Przez najbliższe 5 minut proszę kolorować otrzymaną pustą kartkę. Naciśnij spację aby zacząć odmierzać czas,,>><>>,0,0,0,1,,,,,0,22,22,30,,,,,,,,,,,,,,,,,,,,,449.1596495549890,449.1596495549890,left,0,0.5297081919998160,,,,,,30,21,K,W,2023-01-13_13h29.39.636,Flanker,2022.2.4,None,
Przez najbliższe 5 minut proszę kolorować otrzymaną pustą kartkę. Naciśnij spację aby zacząć odmierzać czas,,<<<<<,0,0,0,1,,,,,0,23,23,10,,,,,,,,,,,,,,,,,,,,,450.69930798499300,450.69930798499300,left,0,0.3841558699932650,,,,,,30,21,K,W,2023-01-13_13h29.39.636,Flanker,2022.2.4,None,
Przez najbliższe 5 minut proszę kolorować otrzymaną pustą kartkę. Naciśnij spację aby zacząć odmierzać czas,,>>>>>,0,0,0,1,,,,,0,24,24,4,,,,,,,,,,,,,,,,,,,,,452.0982463199910,452.0982463199910,right,0,0.3891244900005400,,,,,,30,21,K,W,2023-01-13_13h29.39.636,Flanker,2022.2.4,None,
Przez najbliższe 5 minut proszę kolorować otrzymaną pustą kartkę. Naciśnij spację aby zacząć odmierzać czas,,-->--,0,0,0,1,,,,,0,25,25,59,,,,,,,,,,,,,,,,,,,,,453.4918581289970,453.4918581289970,right,0,0.36940555699402500,,,,,,30,21,K,W,2023-01-13_13h29.39.636,Flanker,2022.2.4,None,
Przez najbliższe 5 minut proszę kolorować otrzymaną pustą kartkę. Naciśnij spację aby zacząć odmierzać czas,,>>>>>,0,0,0,1,,,,,0,26,26,9,,,,,,,,,,,,,,,,,,,,,454.86454673200200,454.86454673200200,right,0,0.33674977300688600,,,,,,30,21,K,W,2023-01-13_13h29.39.636,Flanker,2022.2.4,None,
Przez najbliższe 5 minut proszę kolorować otrzymaną pustą kartkę. Naciśnij spację aby zacząć odmierzać czas,,>>>>>,0,0,0,1,,,,,0,27,27,2,,,,,,,,,,,,,,,,,,,,,456.20856673800200,456.20856673800200,right,0,0.35265390999848000,,,,,,30,21,K,W,2023-01-13_13h29.39.636,Flanker,2022.2.4,None,
Przez najbliższe 5 minut proszę kolorować otrzymaną pustą kartkę. Naciśnij spację aby zacząć odmierzać czas,,<<><<,0,0,0,1,,,,,0,28,28,22,,,,,,,,,,,,,,,,,,,,,457.5650190029990,457.5650190029990,right,0,0.49009857399505600,,,,,,30,21,K,W,2023-01-13_13h29.39.636,Flanker,2022.2.4,None,
Przez najbliższe 5 minut proszę kolorować otrzymaną pustą kartkę. Naciśnij spację aby zacząć odmierzać czas,,<<><<,0,0,0,1,,,,,0,29,29,25,,,,,,,,,,,,,,,,,,,,,459.0746892379980,459.0746892379980,right,0,0.4444393099984150,,,,,,30,21,K,W,2023-01-13_13h29.39.636,Flanker,2022.2.4,None,
Przez najbliższe 5 minut proszę kolorować otrzymaną pustą kartkę. Naciśnij spację aby zacząć odmierzać czas,,<<<<<,0,0,0,1,,,,,0,30,30,19,,,,,,,,,,,,,,,,,,,,,460.5276598719940,460.5276598719940,left,0,0.4244863359926970,,,,,,30,21,K,W,2023-01-13_13h29.39.636,Flanker,2022.2.4,None,
Przez najbliższe 5 minut proszę kolorować otrzymaną pustą kartkę. Naciśnij spację aby zacząć odmierzać czas,,-->--,0,0,0,1,,,,,0,31,31,56,,,,,,,,,,,,,,,,,,,,,461.953045835995,461.953045835995,right,0,0.45509125098760700,,,,,,30,21,K,W,2023-01-13_13h29.39.636,Flanker,2022.2.4,None,
Przez najbliższe 5 minut proszę kolorować otrzymaną pustą kartkę. Naciśnij spację aby zacząć odmierzać czas,,<<<<<,0,0,0,1,,,,,0,32,32,13,,,,,,,,,,,,,,,,,,,,,463.41531846699900,463.41531846699900,left,0,0.34679621701070600,,,,,,30,21,K,W,2023-01-13_13h29.39.636,Flanker,2022.2.4,None,
Przez najbliższe 5 minut proszę kolorować otrzymaną pustą kartkę. Naciśnij spację aby zacząć odmierzać czas,,<<><<,0,0,0,1,,,,,0,33,33,21,,,,,,,,,,,,,,,,,,,,,464.77040741099300,464.77040741099300,right,0,0.434634866003762,,,,,,30,21,K,W,2023-01-13_13h29.39.636,Flanker,2022.2.4,None,
Przez najbliższe 5 minut proszę kolorować otrzymaną pustą kartkę. Naciśnij spację aby zacząć odmierzać czas,,>>>>> ,0,0,0,1,,,,,0,34,34,5,,,,,,,,,,,,,,,,,,,,,466.21593785399500,466.21593785399500,right,0,0.4751858829986300,,,,,,30,21,K,W,2023-01-13_13h29.39.636,Flanker,2022.2.4,None,
Przez najbliższe 5 minut proszę kolorować otrzymaną pustą kartkę. Naciśnij spację aby zacząć odmierzać czas,,-->--,0,0,0,1,,,,,0,35,35,55,,,,,,,,,,,,,,,,,,,,,467.70303463099100,467.70303463099100,right,0,0.39205905600101700,,,,,,30,21,K,W,2023-01-13_13h29.39.636,Flanker,2022.2.4,None,
Przez najbliższe 5 minut proszę kolorować otrzymaną pustą kartkę. Naciśnij spację aby zacząć odmierzać czas,,<<<<<,0,0,0,1,,,,,0,36,36,17,,,,,,,,,,,,,,,,,,,,,469.10236821099500,469.10236821099500,left,0,0.7076749010011550,,,,,,30,21,K,W,2023-01-13_13h29.39.636,Flanker,2022.2.4,None,
Przez najbliższe 5 minut proszę kolorować otrzymaną pustą kartkę. Naciśnij spację aby zacząć odmierzać czas,,<<><<,0,0,0,1,,,,,0,37,37,24,,,,,,,,,,,,,,,,,,,,,470.8200647569900,470.8200647569900,right,0,0.429903240990825,,,,,,30,21,K,W,2023-01-13_13h29.39.636,Flanker,2022.2.4,None,
Przez najbliższe 5 minut proszę kolorować otrzymaną pustą kartkę. Naciśnij spację aby zacząć odmierzać czas,,<<><<,0,0,0,1,,,,,0,38,38,26,,,,,,,,,,,,,,,,,,,,,472.2556518779890,472.2556518779890,right,0,0.43724526700680100,,,,,,30,21,K,W,2023-01-13_13h29.39.636,Flanker,2022.2.4,None,
Przez najbliższe 5 minut proszę kolorować otrzymaną pustą kartkę. Naciśnij spację aby zacząć odmierzać czas,,--<--,0,0,0,1,,,,,0,39,39,41,,,,,,,,,,,,,,,,,,,,,473.7150949789940,473.7150949789940,left,0,0.42680642699997400,,,,,,30,21,K,W,2023-01-13_13h29.39.636,Flanker,2022.2.4,None,
Przez najbliższe 5 minut proszę kolorować otrzymaną pustą kartkę. Naciśnij spację aby zacząć odmierzać czas,,<<><<,0,0,0,1,,,,,0,40,40,28,,,,,,,,,,,,,,,,,,,,,475.14765472999700,475.14765472999700,right,0,0.4001626780082010,,,,,,30,21,K,W,2023-01-13_13h29.39.636,Flanker,2022.2.4,None,
Przez najbliższe 5 minut proszę kolorować otrzymaną pustą kartkę. Naciśnij spację aby zacząć odmierzać czas,,>><>>,0,0,0,1,,,,,0,41,41,38,,,,,,,,,,,,,,,,,,,,,476.54268463100000,476.54268463100000,left,0,0.4302725700108570,,,,,,30,21,K,W,2023-01-13_13h29.39.636,Flanker,2022.2.4,None,
Przez najbliższe 5 minut proszę kolorować otrzymaną pustą kartkę. Naciśnij spację aby zacząć odmierzać czas,,--<--,0,0,0,1,,,,,0,42,42,42,,,,,,,,,,,,,,,,,,,,,477.9915034320000,477.9915034320000,left,0,0.42924489300639800,,,,,,30,21,K,W,2023-01-13_13h29.39.636,Flanker,2022.2.4,None,
Przez najbliższe 5 minut proszę kolorować otrzymaną pustą kartkę. Naciśnij spację aby zacząć odmierzać czas,,>><>>,0,0,0,1,,,,,0,43,43,36,,,,,,,,,,,,,,,,,,,,,479.4380365859980,479.4380365859980,left,0,0.5147350420011210,,,,,,30,21,K,W,2023-01-13_13h29.39.636,Flanker,2022.2.4,None,
Przez najbliższe 5 minut proszę kolorować otrzymaną pustą kartkę. Naciśnij spację aby zacząć odmierzać czas,,>><>>,0,0,0,1,,,,,0,44,44,31,,,,,,,,,,,,,,,,,,,,,480.9669519290040,480.9669519290040,left,0,0.4968433449976150,,,,,,30,21,K,W,2023-01-13_13h29.39.636,Flanker,2022.2.4,None,
Przez najbliższe 5 minut proszę kolorować otrzymaną pustą kartkę. Naciśnij spację aby zacząć odmierzać czas,,>>>>>,0,0,0,1,,,,,0,45,45,8,,,,,,,,,,,,,,,,,,,,,482.47576796799000,482.47576796799000,right,0,0.4019073660019790,,,,,,30,21,K,W,2023-01-13_13h29.39.636,Flanker,2022.2.4,None,
Przez najbliższe 5 minut proszę kolorować otrzymaną pustą kartkę. Naciśnij spację aby zacząć odmierzać czas,,-->--,0,0,0,1,,,,,0,46,46,52,,,,,,,,,,,,,,,,,,,,,483.89565826200100,483.89565826200100,right,0,0.4539599889976670,,,,,,30,21,K,W,2023-01-13_13h29.39.636,Flanker,2022.2.4,None,
Przez najbliższe 5 minut proszę kolorować otrzymaną pustą kartkę. Naciśnij spację aby zacząć odmierzać czas,,-->--,0,0,0,1,,,,,0,47,47,54,,,,,,,,,,,,,,,,,,,,,485.3669101409910,485.3669101409910,right,0,0.3957445109990660,,,,,,30,21,K,W,2023-01-13_13h29.39.636,Flanker,2022.2.4,None,
Przez najbliższe 5 minut proszę kolorować otrzymaną pustą kartkę. Naciśnij spację aby zacząć odmierzać czas,,<<<<<,0,0,0,1,,,,,0,48,48,12,,,,,,,,,,,,,,,,,,,,,486.7646939159900,486.7646939159900,left,0,0.4219358020054640,,,,,,30,21,K,W,2023-01-13_13h29.39.636,Flanker,2022.2.4,None,
Przez najbliższe 5 minut proszę kolorować otrzymaną pustą kartkę. Naciśnij spację aby zacząć odmierzać czas,,>><>>,0,0,0,1,,,,,0,49,49,37,,,,,,,,,,,,,,,,,,,,,488.2006870019980,488.2006870019980,left,0,0.5269455700035910,,,,,,30,21,K,W,2023-01-13_13h29.39.636,Flanker,2022.2.4,None,
Przez najbliższe 5 minut proszę kolorować otrzymaną pustą kartkę. Naciśnij spację aby zacząć odmierzać czas,,<<><<,0,0,0,1,,,,,0,50,50,20,,,,,,,,,,,,,,,,,,,,,489.75060953499600,489.75060953499600,right,0,0.5200873779976970,,,,,,30,21,K,W,2023-01-13_13h29.39.636,Flanker,2022.2.4,None,
Przez najbliższe 5 minut proszę kolorować otrzymaną pustą kartkę. Naciśnij spację aby zacząć odmierzać czas,,<<<<<,0,0,0,1,,,,,0,51,51,15,,,,,,,,,,,,,,,,,,,,,491.27620853699000,491.27620853699000,left,0,0.3743629930104360,,,,,,30,21,K,W,2023-01-13_13h29.39.636,Flanker,2022.2.4,None,
Przez najbliższe 5 minut proszę kolorować otrzymaną pustą kartkę. Naciśnij spację aby zacząć odmierzać czas,,<<><<,0,0,0,1,,,,,0,52,52,23,,,,,,,,,,,,,,,,,,,,,492.65513833500200,492.65513833500200,right,0,0.6084357450017710,,,,,,30,21,K,W,2023-01-13_13h29.39.636,Flanker,2022.2.4,None,
Przez najbliższe 5 minut proszę kolorować otrzymaną pustą kartkę. Naciśnij spację aby zacząć odmierzać czas,,>>>>>,0,0,0,1,,,,,0,53,53,0,,,,,,,,,,,,,,,,,,,,,494.28124931899900,494.28124931899900,right,0,0.3661765249999010,,,,,,30,21,K,W,2023-01-13_13h29.39.636,Flanker,2022.2.4,None,
Przez najbliższe 5 minut proszę kolorować otrzymaną pustą kartkę. Naciśnij spację aby zacząć odmierzać czas,,<<><<,0,0,0,1,,,,,0,54,54,27,,,,,,,,,,,,,,,,,,,,,495.65063366800300,495.65063366800300,right,0,0.4278125970013210,,,,,,30,21,K,W,2023-01-13_13h29.39.636,Flanker,2022.2.4,None,
Przez najbliższe 5 minut proszę kolorować otrzymaną pustą kartkę. Naciśnij spację aby zacząć odmierzać czas,,--<--,0,0,0,1,,,,,0,55,55,45,,,,,,,,,,,,,,,,,,,,,497.0800804879980,497.0800804879980,left,0,0.43835646798834200,,,,,,30,21,K,W,2023-01-13_13h29.39.636,Flanker,2022.2.4,None,
Przez najbliższe 5 minut proszę kolorować otrzymaną pustą kartkę. Naciśnij spację aby zacząć odmierzać czas,,-->--,0,0,0,1,,,,,0,56,56,51,,,,,,,,,,,,,,,,,,,,,498.52466231900300,498.52466231900300,right,0,0.41355973698955500,,,,,,30,21,K,W,2023-01-13_13h29.39.636,Flanker,2022.2.4,None,
Przez najbliższe 5 minut proszę kolorować otrzymaną pustą kartkę. Naciśnij spację aby zacząć odmierzać czas,,<<<<<,0,0,0,1,,,,,0,57,57,11,,,,,,,,,,,,,,,,,,,,,499.9478409509900,499.9478409509900,left,0,0.40153286200074900,,,,,,30,21,K,W,2023-01-13_13h29.39.636,Flanker,2022.2.4,None,
Przez najbliższe 5 minut proszę kolorować otrzymaną pustą kartkę. Naciśnij spację aby zacząć odmierzać czas,,>>>>>,0,0,0,1,,,,,0,58,58,1,,,,,,,,,,,,,,,,,,,,,501.36454373899300,501.36454373899300,right,0,0.3606449710059680,,,,,,30,21,K,W,2023-01-13_13h29.39.636,Flanker,2022.2.4,None,
Przez najbliższe 5 minut proszę kolorować otrzymaną pustą kartkę. Naciśnij spację aby zacząć odmierzać czas,,--<--,0,0,0,1,,,,,0,59,59,48,,,,,,,,,,,,,,,,,,,,,502.7391823929940,502.7391823929940,left,0,0.3410876970010580,,,,,,30,21,K,W,2023-01-13_13h29.39.636,Flanker,2022.2.4,None,
Przez najbliższe 5 minut proszę kolorować otrzymaną pustą kartkę. Naciśnij spację aby zacząć odmierzać czas,,,0,0,0,1,,,,,,,,,,,,,,,,,,,,,,,,,,,,,,,,,,,,,,,30,21,K,W,2023-01-13_13h29.39.636,Flanker,2022.2.4,None,
Przez najbliższe 5 minut proszę kolorować otrzymaną kolorwankę z mandalą. Naciśnij spację aby zacząć odmierzać czas,>><>>,,0,1,1,0,0,0,0,3,,,,,,,,,503.1334651429930,504.0817796619960,space,10.897488765986100,515.0038677749980,815.0075052619940,816.9882647509950,space,15.95540105800320,832.9598568450020,841.9552340899970,841.9552340899970,left,0,0.6620578130095960,,,,,,,,,,,,30,21,K,W,2023-01-13_13h29.39.636,Flanker,2022.2.4,None,
Przez najbliższe 5 minut proszę kolorować otrzymaną kolorwankę z mandalą. Naciśnij spację aby zacząć odmierzać czas,>>>>>,,0,1,1,0,0,1,1,1,,,,,,,,,,,,,,,,,,,843.643437983992,843.643437983992,right,0,0.32487403800769200,,,,,,,,,,,,30,21,K,W,2023-01-13_13h29.39.636,Flanker,2022.2.4,None,
Przez najbliższe 5 minut proszę kolorować otrzymaną kolorwankę z mandalą. Naciśnij spację aby zacząć odmierzać czas,<<<<<,,0,1,1,0,0,2,2,0,,,,,,,,,,,,,,,,,,,844.9766472179910,844.9766472179910,left,0,0.3256981480080870,,,,,,,,,,,,30,21,K,W,2023-01-13_13h29.39.636,Flanker,2022.2.4,None,
Przez najbliższe 5 minut proszę kolorować otrzymaną kolorwankę z mandalą. Naciśnij spację aby zacząć odmierzać czas,<<><<,,0,1,1,0,0,3,3,2,,,,,,,,,,,,,,,,,,,846.3126339259910,846.3126339259910,right,0,0.4216451059910470,,,,,,,,,,,,30,21,K,W,2023-01-13_13h29.39.636,Flanker,2022.2.4,None,
Przez najbliższe 5 minut proszę kolorować otrzymaną kolorwankę z mandalą. Naciśnij spację aby zacząć odmierzać czas,--<--,,0,1,1,0,0,4,4,4,,,,,,,,,,,,,,,,,,,847.7459896689980,847.7459896689980,left,0,0.4402782630058940,,,,,,,,,,,,30,21,K,W,2023-01-13_13h29.39.636,Flanker,2022.2.4,None,
Przez najbliższe 5 minut proszę kolorować otrzymaną kolorwankę z mandalą. Naciśnij spację aby zacząć odmierzać czas,-->--,,0,1,1,0,0,5,5,5,,,,,,,,,,,,,,,,,,,849.1927405089960,849.1927405089960,right,0,0.3344506309949790,,,,,,,,,,,,30,21,K,W,2023-01-13_13h29.39.636,Flanker,2022.2.4,None,
Przez najbliższe 5 minut proszę kolorować otrzymaną kolorwankę z mandalą. Naciśnij spację aby zacząć odmierzać czas,,>>>>>,0,1,1,0,,,,,0,0,0,8,,,,,,,,,,,,,,,,,,,,850.5311038799990,858.5269427099990,858.5269427099990,right,0,0.4261130740051160,857.5403859779910,,,,,30,21,K,W,2023-01-13_13h29.39.636,Flanker,2022.2.4,None,
Przez najbliższe 5 minut proszę kolorować otrzymaną kolorwankę z mandalą. Naciśnij spację aby zacząć odmierzać czas,,<<<<<,0,1,1,0,,,,,0,1,1,11,,,,,,,,,,,,,,,,,,,,,859.9701772330010,859.9701772330010,left,0,0.37988397300068800,,,,,,30,21,K,W,2023-01-13_13h29.39.636,Flanker,2022.2.4,None,
Przez najbliższe 5 minut proszę kolorować otrzymaną kolorwankę z mandalą. Naciśnij spację aby zacząć odmierzać czas,,-->--,0,1,1,0,,,,,0,2,2,56,,,,,,,,,,,,,,,,,,,,,861.3659281259900,861.3659281259900,right,0,0.36000486300326900,,,,,,30,21,K,W,2023-01-13_13h29.39.636,Flanker,2022.2.4,None,
Przez najbliższe 5 minut proszę kolorować otrzymaną kolorwankę z mandalą. Naciśnij spację aby zacząć odmierzać czas,,--<--,0,1,1,0,,,,,0,3,3,45,,,,,,,,,,,,,,,,,,,,,862.7364869339950,862.7364869339950,left,0,0.3284993589913940,,,,,,30,21,K,W,2023-01-13_13h29.39.636,Flanker,2022.2.4,None,
Przez najbliższe 5 minut proszę kolorować otrzymaną kolorwankę z mandalą. Naciśnij spację aby zacząć odmierzać czas,,--<--,0,1,1,0,,,,,0,4,4,44,,,,,,,,,,,,,,,,,,,,,864.0761657539990,864.0761657539990,left,0,0.34175610399688600,,,,,,30,21,K,W,2023-01-13_13h29.39.636,Flanker,2022.2.4,None,
Przez najbliższe 5 minut proszę kolorować otrzymaną kolorwankę z mandalą. Naciśnij spację aby zacząć odmierzać czas,,<<<<<,0,1,1,0,,,,,0,5,5,18,,,,,,,,,,,,,,,,,,,,,865.4262999889910,865.4262999889910,left,0,0.3526929540093990,,,,,,30,21,K,W,2023-01-13_13h29.39.636,Flanker,2022.2.4,None,
Przez najbliższe 5 minut proszę kolorować otrzymaną kolorwankę z mandalą. Naciśnij spację aby zacząć odmierzać czas,,<<><<,0,1,1,0,,,,,0,6,6,26,,,,,,,,,,,,,,,,,,,,,866.7879970609940,866.7879970609940,left,0,0.42487554100807800,,,,,,30,21,K,W,2023-01-13_13h29.39.636,Flanker,2022.2.4,None,
Przez najbliższe 5 minut proszę kolorować otrzymaną kolorwankę z mandalą. Naciśnij spację aby zacząć odmierzać czas,,<<><<,0,1,1,0,,,,,0,7,7,25,,,,,,,,,,,,,,,,,,,,,868.2263280519980,868.2263280519980,right,0,0.4555774759937780,,,,,,30,21,K,W,2023-01-13_13h29.39.636,Flanker,2022.2.4,None,
Przez najbliższe 5 minut proszę kolorować otrzymaną kolorwankę z mandalą. Naciśnij spację aby zacząć odmierzać czas,,-->--,0,1,1,0,,,,,0,8,8,51,,,,,,,,,,,,,,,,,,,,,869.6929907279990,869.6929907279990,right,0,0.40789015000336800,,,,,,30,21,K,W,2023-01-13_13h29.39.636,Flanker,2022.2.4,None,
Przez najbliższe 5 minut proszę kolorować otrzymaną kolorwankę z mandalą. Naciśnij spację aby zacząć odmierzać czas,,--<--,0,1,1,0,,,,,0,9,9,40,,,,,,,,,,,,,,,,,,,,,871.1096556699920,871.1096556699920,left,0,0.36814768399926800,,,,,,30,21,K,W,2023-01-13_13h29.39.636,Flanker,2022.2.4,None,
Przez najbliższe 5 minut proszę kolorować otrzymaną kolorwankę z mandalą. Naciśnij spację aby zacząć odmierzać czas,,<<<<<,0,1,1,0,,,,,0,10,10,15,,,,,,,,,,,,,,,,,,,,,872.4889272529980,872.4889272529980,left,0,0.37767606099078000,,,,,,30,21,K,W,2023-01-13_13h29.39.636,Flanker,2022.2.4,None,
Przez najbliższe 5 minut proszę kolorować otrzymaną kolorwankę z mandalą. Naciśnij spację aby zacząć odmierzać czas,,>><>>,0,1,1,0,,,,,0,11,11,34,,,,,,,,,,,,,,,,,,,,,873.8831988859890,873.8831988859890,right,0,0.3444533869915180,,,,,,30,21,K,W,2023-01-13_13h29.39.636,Flanker,2022.2.4,None,
Przez najbliższe 5 minut proszę kolorować otrzymaną kolorwankę z mandalą. Naciśnij spację aby zacząć odmierzać czas,,>>>>>,0,1,1,0,,,,,0,12,12,2,,,,,,,,,,,,,,,,,,,,,875.229040552993,875.229040552993,right,0,0.441636543997447,,,,,,30,21,K,W,2023-01-13_13h29.39.636,Flanker,2022.2.4,None,
Przez najbliższe 5 minut proszę kolorować otrzymaną kolorwankę z mandalą. Naciśnij spację aby zacząć odmierzać czas,,<<><<,0,1,1,0,,,,,0,13,13,27,,,,,,,,,,,,,,,,,,,,,876.6910510699960,876.6910510699960,right,0,0.552619300011429,,,,,,30,21,K,W,2023-01-13_13h29.39.636,Flanker,2022.2.4,None,
Przez najbliższe 5 minut proszę kolorować otrzymaną kolorwankę z mandalą. Naciśnij spację aby zacząć odmierzać czas,,<<><<,0,1,1,0,,,,,0,14,14,21,,,,,,,,,,,,,,,,,,,,,878.2529406120010,878.2529406120010,right,0,0.6065186979976720,,,,,,30,21,K,W,2023-01-13_13h29.39.636,Flanker,2022.2.4,None,
Przez najbliższe 5 minut proszę kolorować otrzymaną kolorwankę z mandalą. Naciśnij spację aby zacząć odmierzać czas,,>>>>> ,0,1,1,0,,,,,0,15,15,5,,,,,,,,,,,,,,,,,,,,,879.8626506159930,879.8626506159930,right,0,0.3770233359973650,,,,,,30,21,K,W,2023-01-13_13h29.39.636,Flanker,2022.2.4,None,
Przez najbliższe 5 minut proszę kolorować otrzymaną kolorwankę z mandalą. Naciśnij spację aby zacząć odmierzać czas,,-->--,0,1,1,0,,,,,0,16,16,59,,,,,,,,,,,,,,,,,,,,,881.2458016030000,881.2458016030000,right,0,0.32781562198943000,,,,,,30,21,K,W,2023-01-13_13h29.39.636,Flanker,2022.2.4,None,
Przez najbliższe 5 minut proszę kolorować otrzymaną kolorwankę z mandalą. Naciśnij spację aby zacząć odmierzać czas,,>>>>>,0,1,1,0,,,,,0,17,17,4,,,,,,,,,,,,,,,,,,,,,882.5818139039910,882.5818139039910,right,0,0.3347577660024400,,,,,,30,21,K,W,2023-01-13_13h29.39.636,Flanker,2022.2.4,None,
Przez najbliższe 5 minut proszę kolorować otrzymaną kolorwankę z mandalą. Naciśnij spację aby zacząć odmierzać czas,,>>>>>,0,1,1,0,,,,,0,18,18,9,,,,,,,,,,,,,,,,,,,,,883.9278894890010,883.9278894890010,right,0,0.3456839279970150,,,,,,30,21,K,W,2023-01-13_13h29.39.636,Flanker,2022.2.4,None,
Przez najbliższe 5 minut proszę kolorować otrzymaną kolorwankę z mandalą. Naciśnij spację aby zacząć odmierzać czas,,<<><<,0,1,1,0,,,,,0,19,19,23,,,,,,,,,,,,,,,,,,,,,885.2800367040040,885.2800367040040,left,0,0.377327554000658,,,,,,30,21,K,W,2023-01-13_13h29.39.636,Flanker,2022.2.4,None,
Przez najbliższe 5 minut proszę kolorować otrzymaną kolorwankę z mandalą. Naciśnij spację aby zacząć odmierzać czas,,<<<<<,0,1,1,0,,,,,0,20,20,16,,,,,,,,,,,,,,,,,,,,,886.6720345450010,886.6720345450010,left,0,0.46553095600393100,,,,,,30,21,K,W,2023-01-13_13h29.39.636,Flanker,2022.2.4,None,
Przez najbliższe 5 minut proszę kolorować otrzymaną kolorwankę z mandalą. Naciśnij spację aby zacząć odmierzać czas,,>>>>>,0,1,1,0,,,,,0,21,21,0,,,,,,,,,,,,,,,,,,,,,888.1492915619890,888.1492915619890,right,0,0.3970982949977040,,,,,,30,21,K,W,2023-01-13_13h29.39.636,Flanker,2022.2.4,None,
Przez najbliższe 5 minut proszę kolorować otrzymaną kolorwankę z mandalą. Naciśnij spację aby zacząć odmierzać czas,,>><>>,0,1,1,0,,,,,0,22,22,36,,,,,,,,,,,,,,,,,,,,,889.5594709229920,889.5594709229920,left,0,0.49182454399124300,,,,,,30,21,K,W,2023-01-13_13h29.39.636,Flanker,2022.2.4,None,
Przez najbliższe 5 minut proszę kolorować otrzymaną kolorwankę z mandalą. Naciśnij spację aby zacząć odmierzać czas,,--<--,0,1,1,0,,,,,0,23,23,48,,,,,,,,,,,,,,,,,,,,,891.0588979299940,891.0588979299940,left,0,0.37151352400542200,,,,,,30,21,K,W,2023-01-13_13h29.39.636,Flanker,2022.2.4,None,
Przez najbliższe 5 minut proszę kolorować otrzymaną kolorwankę z mandalą. Naciśnij spację aby zacząć odmierzać czas,,--<--,0,1,1,0,,,,,0,24,24,47,,,,,,,,,,,,,,,,,,,,,892.4321381859920,892.4321381859920,left,0,0.3901832440024010,,,,,,30,21,K,W,2023-01-13_13h29.39.636,Flanker,2022.2.4,None,
Przez najbliższe 5 minut proszę kolorować otrzymaną kolorwankę z mandalą. Naciśnij spację aby zacząć odmierzać czas,,>>>>>,0,1,1,0,,,,,0,25,25,1,,,,,,,,,,,,,,,,,,,,,893.8395533879960,893.8395533879960,right,0,0.32164682300936000,,,,,,30,21,K,W,2023-01-13_13h29.39.636,Flanker,2022.2.4,None,
Przez najbliższe 5 minut proszę kolorować otrzymaną kolorwankę z mandalą. Naciśnij spację aby zacząć odmierzać czas,,>>>>>,0,1,1,0,,,,,0,26,26,6,,,,,,,,,,,,,,,,,,,,,895.176161262003,895.176161262003,right,0,0.3210915379895600,,,,,,30,21,K,W,2023-01-13_13h29.39.636,Flanker,2022.2.4,None,
Przez najbliższe 5 minut proszę kolorować otrzymaną kolorwankę z mandalą. Naciśnij spację aby zacząć odmierzać czas,,<<<<<,0,1,1,0,,,,,0,27,27,17,,,,,,,,,,,,,,,,,,,,,896.5095596659960,896.5095596659960,left,0,0.35946731800504500,,,,,,30,21,K,W,2023-01-13_13h29.39.636,Flanker,2022.2.4,None,
Przez najbliższe 5 minut proszę kolorować otrzymaną kolorwankę z mandalą. Naciśnij spację aby zacząć odmierzać czas,,<<><<,0,1,1,0,,,,,0,28,28,28,,,,,,,,,,,,,,,,,,,,,897.8816563159930,897.8816563159930,right,0,0.49244960899523000,,,,,,30,21,K,W,2023-01-13_13h29.39.636,Flanker,2022.2.4,None,
Przez najbliższe 5 minut proszę kolorować otrzymaną kolorwankę z mandalą. Naciśnij spację aby zacząć odmierzać czas,,--<--,0,1,1,0,,,,,0,29,29,43,,,,,,,,,,,,,,,,,,,,,899.3810873320040,899.3810873320040,left,0,0.39906397700542600,,,,,,30,21,K,W,2023-01-13_13h29.39.636,Flanker,2022.2.4,None,
Przez najbliższe 5 minut proszę kolorować otrzymaną kolorwankę z mandalą. Naciśnij spację aby zacząć odmierzać czas,,<<><<,0,1,1,0,,,,,0,30,30,29,,,,,,,,,,,,,,,,,,,,,900.7921682719900,900.7921682719900,right,0,0.37384526200185100,,,,,,30,21,K,W,2023-01-13_13h29.39.636,Flanker,2022.2.4,None,
Przez najbliższe 5 minut proszę kolorować otrzymaną kolorwankę z mandalą. Naciśnij spację aby zacząć odmierzać czas,,>><>>,0,1,1,0,,,,,0,31,31,31,,,,,,,,,,,,,,,,,,,,,902.1815444919920,902.1815444919920,left,0,0.6655512790021020,,,,,,30,21,K,W,2023-01-13_13h29.39.636,Flanker,2022.2.4,None,
Przez najbliższe 5 minut proszę kolorować otrzymaną kolorwankę z mandalą. Naciśnij spację aby zacząć odmierzać czas,,-->--,0,1,1,0,,,,,0,32,32,54,,,,,,,,,,,,,,,,,,,,,903.847670410003,903.847670410003,right,0,0.35849582399532700,,,,,,30,21,K,W,2023-01-13_13h29.39.636,Flanker,2022.2.4,None,
Przez najbliższe 5 minut proszę kolorować otrzymaną kolorwankę z mandalą. Naciśnij spację aby zacząć odmierzać czas,,<<><<,0,1,1,0,,,,,0,33,33,24,,,,,,,,,,,,,,,,,,,,,905.2149411909920,905.2149411909920,left,0,0.6000881640065930,,,,,,30,21,K,W,2023-01-13_13h29.39.636,Flanker,2022.2.4,None,
Przez najbliższe 5 minut proszę kolorować otrzymaną kolorwankę z mandalą. Naciśnij spację aby zacząć odmierzać czas,,<<><<,0,1,1,0,,,,,0,34,34,20,,,,,,,,,,,,,,,,,,,,,906.8259114279940,906.8259114279940,right,0,0.40313318600237800,,,,,,30,21,K,W,2023-01-13_13h29.39.636,Flanker,2022.2.4,None,
Przez najbliższe 5 minut proszę kolorować otrzymaną kolorwankę z mandalą. Naciśnij spację aby zacząć odmierzać czas,,>>>>>,0,1,1,0,,,,,0,35,35,3,,,,,,,,,,,,,,,,,,,,,908.2429485589960,908.2429485589960,right,0,0.36193615400407,,,,,,30,21,K,W,2023-01-13_13h29.39.636,Flanker,2022.2.4,None,
Przez najbliższe 5 minut proszę kolorować otrzymaną kolorwankę z mandalą. Naciśnij spację aby zacząć odmierzać czas,,>><>>,0,1,1,0,,,,,0,36,36,35,,,,,,,,,,,,,,,,,,,,,909.6093658100000,909.6093658100000,left,0,0.3926097430085070,,,,,,30,21,K,W,2023-01-13_13h29.39.636,Flanker,2022.2.4,None,
Przez najbliższe 5 minut proszę kolorować otrzymaną kolorwankę z mandalą. Naciśnij spację aby zacząć odmierzać czas,,<<<<<,0,1,1,0,,,,,0,37,37,14,,,,,,,,,,,,,,,,,,,,,911.0088643100030,911.0088643100030,left,0,0.347966348999762,,,,,,30,21,K,W,2023-01-13_13h29.39.636,Flanker,2022.2.4,None,
Przez najbliższe 5 minut proszę kolorować otrzymaną kolorwankę z mandalą. Naciśnij spację aby zacząć odmierzać czas,,<<<<<,0,1,1,0,,,,,0,38,38,13,,,,,,,,,,,,,,,,,,,,,912.3691243380020,912.3691243380020,left,0,0.4197418609983290,,,,,,30,21,K,W,2023-01-13_13h29.39.636,Flanker,2022.2.4,None,
Przez najbliższe 5 minut proszę kolorować otrzymaną kolorwankę z mandalą. Naciśnij spację aby zacząć odmierzać czas,,--<--,0,1,1,0,,,,,0,39,39,46,,,,,,,,,,,,,,,,,,,,,913.7960294919900,913.7960294919900,left,0,0.3659640059922820,,,,,,30,21,K,W,2023-01-13_13h29.39.636,Flanker,2022.2.4,None,
Przez najbliższe 5 minut proszę kolorować otrzymaną kolorwankę z mandalą. Naciśnij spację aby zacząć odmierzać czas,,--<--,0,1,1,0,,,,,0,40,40,42,,,,,,,,,,,,,,,,,,,,,915.1756983119990,915.1756983119990,left,0,0.43316007699468200,,,,,,30,21,K,W,2023-01-13_13h29.39.636,Flanker,2022.2.4,None,
Przez najbliższe 5 minut proszę kolorować otrzymaną kolorwankę z mandalą. Naciśnij spację aby zacząć odmierzać czas,,>><>>,0,1,1,0,,,,,0,41,41,30,,,,,,,,,,,,,,,,,,,,,916.6257558459910,916.6257558459910,left,0,0.4030747709912250,,,,,,30,21,K,W,2023-01-13_13h29.39.636,Flanker,2022.2.4,None,
Przez najbliższe 5 minut proszę kolorować otrzymaną kolorwankę z mandalą. Naciśnij spację aby zacząć odmierzać czas,,<<<<<,0,1,1,0,,,,,0,42,42,10,,,,,,,,,,,,,,,,,,,,,918.0423543859940,918.0423543859940,left,0,0.3814686589903430,,,,,,30,21,K,W,2023-01-13_13h29.39.636,Flanker,2022.2.4,None,
Przez najbliższe 5 minut proszę kolorować otrzymaną kolorwankę z mandalą. Naciśnij spację aby zacząć odmierzać czas,,-->--,0,1,1,0,,,,,0,43,43,58,,,,,,,,,,,,,,,,,,,,,919.4285138659910,919.4285138659910,right,0,0.5342272230045640,,,,,,30,21,K,W,2023-01-13_13h29.39.636,Flanker,2022.2.4,None,
Przez najbliższe 5 minut proszę kolorować otrzymaną kolorwankę z mandalą. Naciśnij spację aby zacząć odmierzać czas,,-->--,0,1,1,0,,,,,0,44,44,55,,,,,,,,,,,,,,,,,,,,,920.9689552990020,920.9689552990020,right,0,0.36375317799684100,,,,,,30,21,K,W,2023-01-13_13h29.39.636,Flanker,2022.2.4,None,
Przez najbliższe 5 minut proszę kolorować otrzymaną kolorwankę z mandalą. Naciśnij spację aby zacząć odmierzać czas,,>>>>>,0,1,1,0,,,,,0,45,45,7,,,,,,,,,,,,,,,,,,,,,922.3368953659960,922.3368953659960,right,0,0.35779630500474000,,,,,,30,21,K,W,2023-01-13_13h29.39.636,Flanker,2022.2.4,None,
Przez najbliższe 5 minut proszę kolorować otrzymaną kolorwankę z mandalą. Naciśnij spację aby zacząć odmierzać czas,,-->--,0,1,1,0,,,,,0,46,46,53,,,,,,,,,,,,,,,,,,,,,923.7027348720000,923.7027348720000,right,0,0.36382525401131700,,,,,,30,21,K,W,2023-01-13_13h29.39.636,Flanker,2022.2.4,None,
Przez najbliższe 5 minut proszę kolorować otrzymaną kolorwankę z mandalą. Naciśnij spację aby zacząć odmierzać czas,,>><>>,0,1,1,0,,,,,0,47,47,37,,,,,,,,,,,,,,,,,,,,,925.0755453600000,925.0755453600000,right,0,0.4111269069981060,,,,,,30,21,K,W,2023-01-13_13h29.39.636,Flanker,2022.2.4,None,
Przez najbliższe 5 minut proszę kolorować otrzymaną kolorwankę z mandalą. Naciśnij spację aby zacząć odmierzać czas,,>><>>,0,1,1,0,,,,,0,48,48,32,,,,,,,,,,,,,,,,,,,,,926.502116535994,926.502116535994,left,0,0.5361655969900310,,,,,,30,21,K,W,2023-01-13_13h29.39.636,Flanker,2022.2.4,None,
Przez najbliższe 5 minut proszę kolorować otrzymaną kolorwankę z mandalą. Naciśnij spację aby zacząć odmierzać czas,,<<<<<,0,1,1,0,,,,,0,49,49,19,,,,,,,,,,,,,,,,,,,,,928.0424123229900,928.0424123229900,left,0,0.31617851500050200,,,,,,30,21,K,W,2023-01-13_13h29.39.636,Flanker,2022.2.4,None,
Przez najbliższe 5 minut proszę kolorować otrzymaną kolorwankę z mandalą. Naciśnij spację aby zacząć odmierzać czas,,-->--,0,1,1,0,,,,,0,50,50,52,,,,,,,,,,,,,,,,,,,,,929.3689351369980,929.3689351369980,right,0,0.3975548910093490,,,,,,30,21,K,W,2023-01-13_13h29.39.636,Flanker,2022.2.4,None,
Przez najbliższe 5 minut proszę kolorować otrzymaną kolorwankę z mandalą. Naciśnij spację aby zacząć odmierzać czas,,-->--,0,1,1,0,,,,,0,51,51,57,,,,,,,,,,,,,,,,,,,,,930.7686547569900,930.7686547569900,right,0,0.4658372080011760,,,,,,30,21,K,W,2023-01-13_13h29.39.636,Flanker,2022.2.4,None,
Przez najbliższe 5 minut proszę kolorować otrzymaną kolorwankę z mandalą. Naciśnij spację aby zacząć odmierzać czas,,<<><<,0,1,1,0,,,,,0,52,52,22,,,,,,,,,,,,,,,,,,,,,932.2412412589910,932.2412412589910,right,0,0.5702652309992120,,,,,,30,21,K,W,2023-01-13_13h29.39.636,Flanker,2022.2.4,None,
Przez najbliższe 5 minut proszę kolorować otrzymaną kolorwankę z mandalą. Naciśnij spację aby zacząć odmierzać czas,,>><>>,0,1,1,0,,,,,0,53,53,33,,,,,,,,,,,,,,,,,,,,,933.8280250769890,933.8280250769890,left,0,0.4302055899897820,,,,,,30,21,K,W,2023-01-13_13h29.39.636,Flanker,2022.2.4,None,
Przez najbliższe 5 minut proszę kolorować otrzymaną kolorwankę z mandalą. Naciśnij spację aby zacząć odmierzać czas,,<<<<<,0,1,1,0,,,,,0,54,54,12,,,,,,,,,,,,,,,,,,,,,935.2698198349970,935.2698198349970,left,0,0.3395131169963860,,,,,,30,21,K,W,2023-01-13_13h29.39.636,Flanker,2022.2.4,None,
Przez najbliższe 5 minut proszę kolorować otrzymaną kolorwankę z mandalą. Naciśnij spację aby zacząć odmierzać czas,,>><>>,0,1,1,0,,,,,0,55,55,39,,,,,,,,,,,,,,,,,,,,,936.6194184959900,936.6194184959900,left,0,0.5239199689967790,,,,,,30,21,K,W,2023-01-13_13h29.39.636,Flanker,2022.2.4,None,
Przez najbliższe 5 minut proszę kolorować otrzymaną kolorwankę z mandalą. Naciśnij spację aby zacząć odmierzać czas,,--<--,0,1,1,0,,,,,0,56,56,49,,,,,,,,,,,,,,,,,,,,,938.1521584919970,938.1521584919970,left,0,0.4050860540010040,,,,,,30,21,K,W,2023-01-13_13h29.39.636,Flanker,2022.2.4,None,
Przez najbliższe 5 minut proszę kolorować otrzymaną kolorwankę z mandalą. Naciśnij spację aby zacząć odmierzać czas,,--<--,0,1,1,0,,,,,0,57,57,41,,,,,,,,,,,,,,,,,,,,,939.5643642420040,939.5643642420040,left,0,0.33991706000233500,,,,,,30,21,K,W,2023-01-13_13h29.39.636,Flanker,2022.2.4,None,
Przez najbliższe 5 minut proszę kolorować otrzymaną kolorwankę z mandalą. Naciśnij spację aby zacząć odmierzać czas,,>><>>,0,1,1,0,,,,,0,58,58,38,,,,,,,,,,,,,,,,,,,,,940.9109032109990,940.9109032109990,left,0,0.4153407959965990,,,,,,30,21,K,W,2023-01-13_13h29.39.636,Flanker,2022.2.4,None,
Przez najbliższe 5 minut proszę kolorować otrzymaną kolorwankę z mandalą. Naciśnij spację aby zacząć odmierzać czas,,-->--,0,1,1,0,,,,,0,59,59,50,,,,,,,,,,,,,,,,,,,,,942.3419349280010,942.3419349280010,right,0,0.3762564200005730,,,,,,30,21,K,W,2023-01-13_13h29.39.636,Flanker,2022.2.4,None,
Przez najbliższe 5 minut proszę kolorować otrzymaną kolorwankę z mandalą. Naciśnij spację aby zacząć odmierzać czas,,,0,1,1,0,,,,,,,,,,,,,,,,,,,,,,,,,,,,,,,,,,,,,,,30,21,K,W,2023-01-13_13h29.39.636,Flanker,2022.2.4,None,
,,,,,,,,,,,,,,,,,,,,,,,,,,,,,,,,,,,,,,,,,943.7265936740010,943.7265936740010,space,2.1296030309895300,30,21,K,W,2023-01-13_13h29.39.636,Flanker,2022.2.4,None,