kolorowanka,Example,Stimuli,proby.thisRepN,proby.thisTrialN,proby.thisN,proby.thisIndex,zapoznanie.thisRepN,zapoznanie.thisTrialN,zapoznanie.thisN,zapoznanie.thisIndex,Warunki.thisRepN,Warunki.thisTrialN,Warunki.thisN,Warunki.thisIndex,Intro.started,Intro_resp.started,Intro_resp.keys,Intro_resp.rt,Kolorowanie1.started,starttt.started,starttt.keys,starttt.rt,koloruj.started,Instruction.started,key_resp.started,key_resp.keys,key_resp.rt,Wyjasnienie.started,text.started,odp_przyk.started,odp_przyk.keys,odp_przyk.corr,odp_przyk.rt,zapo.started,Zadanie.started,Odp.started,Odp.keys,Odp.corr,Odp.rt,zapo.stopped,thanks.started,KONIEC.started,KONIEC.keys,KONIEC.rt,participant,Wiek (w latach),Płeć (K/M),Entropia,date,expName,psychopyVersion,frameRate,
,,,,,,,,,,,,,,,48.63275252201129,50.608528921962716,space,24.620690106996335,,,,,,,,,,,,,,,,,,,,,,,,,,,4,21,M,N,2023-01-03_12h44.38.216,Flanker,2022.2.4,None,
Przez najbliższe 5 minut proszę kolorować otrzymaną pustą kartkę. Naciśnij spację aby zacząć odmierzać czas,<<<<<,,0,0,0,1,0,0,0,0,,,,,,,,,75.27197666594293,76.23182675603312,space,18.67688713502139,94.95310749101918,394.935451074969,396.920489068958,space,21.804516799980775,418.7506866949843,427.7377470609499,427.7377470609499,left,0,0.619387959013693,,,,,,,,,,,,4,21,M,N,2023-01-03_12h44.38.216,Flanker,2022.2.4,None,
Przez najbliższe 5 minut proszę kolorować otrzymaną pustą kartkę. Naciśnij spację aby zacząć odmierzać czas,>><>>,,0,0,0,1,0,1,1,3,,,,,,,,,,,,,,,,,,,429.3625106109539,429.3625106109539,left,0,0.9675125489011407,,,,,,,,,,,,4,21,M,N,2023-01-03_12h44.38.216,Flanker,2022.2.4,None,
Przez najbliższe 5 minut proszę kolorować otrzymaną pustą kartkę. Naciśnij spację aby zacząć odmierzać czas,>>>>>,,0,0,0,1,0,2,2,1,,,,,,,,,,,,,,,,,,,431.34905753994826,431.34905753994826,right,0,0.5258452509297058,,,,,,,,,,,,4,21,M,N,2023-01-03_12h44.38.216,Flanker,2022.2.4,None,
Przez najbliższe 5 minut proszę kolorować otrzymaną pustą kartkę. Naciśnij spację aby zacząć odmierzać czas,<<><<,,0,0,0,1,0,3,3,2,,,,,,,,,,,,,,,,,,,432.88790388102643,432.88790388102643,right,0,0.7249699169769883,,,,,,,,,,,,4,21,M,N,2023-01-03_12h44.38.216,Flanker,2022.2.4,None,
Przez najbliższe 5 minut proszę kolorować otrzymaną pustą kartkę. Naciśnij spację aby zacząć odmierzać czas,-->--,,0,0,0,1,0,4,4,5,,,,,,,,,,,,,,,,,,,434.62238148995675,434.62238148995675,right,0,0.5275075209792703,,,,,,,,,,,,4,21,M,N,2023-01-03_12h44.38.216,Flanker,2022.2.4,None,
Przez najbliższe 5 minut proszę kolorować otrzymaną pustą kartkę. Naciśnij spację aby zacząć odmierzać czas,--<--,,0,0,0,1,0,5,5,4,,,,,,,,,,,,,,,,,,,436.16191063297447,436.16191063297447,left,0,0.44089986698236316,,,,,,,,,,,,4,21,M,N,2023-01-03_12h44.38.216,Flanker,2022.2.4,None,
Przez najbliższe 5 minut proszę kolorować otrzymaną pustą kartkę. Naciśnij spację aby zacząć odmierzać czas,,--<--,0,0,0,1,,,,,0,0,0,47,,,,,,,,,,,,,,,,,,,,437.6235456520226,445.6264158670092,445.6264158670092,left,0,0.4902380130952224,,,,,,4,21,M,N,2023-01-03_12h44.38.216,Flanker,2022.2.4,None,
Przez najbliższe 5 minut proszę kolorować otrzymaną pustą kartkę. Naciśnij spację aby zacząć odmierzać czas,,<<<<<,0,0,0,1,,,,,0,1,1,17,,,,,,,,,,,,,,,,,,,,,447.14103660092223,447.14103660092223,left,0,0.5162291449960321,,,,,,4,21,M,N,2023-01-03_12h44.38.216,Flanker,2022.2.4,None,
Przez najbliższe 5 minut proszę kolorować otrzymaną pustą kartkę. Naciśnij spację aby zacząć odmierzać czas,,>><>>,0,0,0,1,,,,,0,2,2,39,,,,,,,,,,,,,,,,,,,,,448.6781323699979,448.6781323699979,left,0,0.6381022189743817,,,,,,4,21,M,N,2023-01-03_12h44.38.216,Flanker,2022.2.4,None,
Przez najbliższe 5 minut proszę kolorować otrzymaną pustą kartkę. Naciśnij spację aby zacząć odmierzać czas,,>>>>> ,0,0,0,1,,,,,0,3,3,5,,,,,,,,,,,,,,,,,,,,,450.3167851360049,450.3167851360049,right,0,0.4375199700007215,,,,,,4,21,M,N,2023-01-03_12h44.38.216,Flanker,2022.2.4,None,
Przez najbliższe 5 minut proszę kolorować otrzymaną pustą kartkę. Naciśnij spację aby zacząć odmierzać czas,,<<<<<,0,0,0,1,,,,,0,4,4,13,,,,,,,,,,,,,,,,,,,,,451.7659638050245,451.7659638050245,left,0,0.3813531999476254,,,,,,4,21,M,N,2023-01-03_12h44.38.216,Flanker,2022.2.4,None,
Przez najbliższe 5 minut proszę kolorować otrzymaną pustą kartkę. Naciśnij spację aby zacząć odmierzać czas,,--<--,0,0,0,1,,,,,0,5,5,48,,,,,,,,,,,,,,,,,,,,,453.1628206369933,453.1628206369933,left,0,0.3494763990165666,,,,,,4,21,M,N,2023-01-03_12h44.38.216,Flanker,2022.2.4,None,
Przez najbliższe 5 minut proszę kolorować otrzymaną pustą kartkę. Naciśnij spację aby zacząć odmierzać czas,,<<><<,0,0,0,1,,,,,0,6,6,21,,,,,,,,,,,,,,,,,,,,,454.52590663998853,454.52590663998853,right,0,0.4243169149849564,,,,,,4,21,M,N,2023-01-03_12h44.38.216,Flanker,2022.2.4,None,
Przez najbliższe 5 minut proszę kolorować otrzymaną pustą kartkę. Naciśnij spację aby zacząć odmierzać czas,,>>>>>,0,0,0,1,,,,,0,7,7,6,,,,,,,,,,,,,,,,,,,,,455.9722599189263,455.9722599189263,right,0,0.41498210304416716,,,,,,4,21,M,N,2023-01-03_12h44.38.216,Flanker,2022.2.4,None,
Przez najbliższe 5 minut proszę kolorować otrzymaną pustą kartkę. Naciśnij spację aby zacząć odmierzać czas,,--<--,0,0,0,1,,,,,0,8,8,45,,,,,,,,,,,,,,,,,,,,,457.40702940302435,457.40702940302435,left,0,0.36720434902235866,,,,,,4,21,M,N,2023-01-03_12h44.38.216,Flanker,2022.2.4,None,
Przez najbliższe 5 minut proszę kolorować otrzymaną pustą kartkę. Naciśnij spację aby zacząć odmierzać czas,,<<><<,0,0,0,1,,,,,0,9,9,29,,,,,,,,,,,,,,,,,,,,,458.7788632819429,458.7788632819429,right,0,0.4303037850186229,,,,,,4,21,M,N,2023-01-03_12h44.38.216,Flanker,2022.2.4,None,
Przez najbliższe 5 minut proszę kolorować otrzymaną pustą kartkę. Naciśnij spację aby zacząć odmierzać czas,,-->--,0,0,0,1,,,,,0,10,10,53,,,,,,,,,,,,,,,,,,,,,460.22037016798276,460.22037016798276,right,0,0.4018489170121029,,,,,,4,21,M,N,2023-01-03_12h44.38.216,Flanker,2022.2.4,None,
Przez najbliższe 5 minut proszę kolorować otrzymaną pustą kartkę. Naciśnij spację aby zacząć odmierzać czas,,<<<<<,0,0,0,1,,,,,0,11,11,18,,,,,,,,,,,,,,,,,,,,,461.64043823699467,461.64043823699467,left,0,0.34473678399808705,,,,,,4,21,M,N,2023-01-03_12h44.38.216,Flanker,2022.2.4,None,
Przez najbliższe 5 minut proszę kolorować otrzymaną pustą kartkę. Naciśnij spację aby zacząć odmierzać czas,,<<<<<,0,0,0,1,,,,,0,12,12,16,,,,,,,,,,,,,,,,,,,,,463.002090502996,463.002090502996,left,0,0.3839064019266516,,,,,,4,21,M,N,2023-01-03_12h44.38.216,Flanker,2022.2.4,None,
Przez najbliższe 5 minut proszę kolorować otrzymaną pustą kartkę. Naciśnij spację aby zacząć odmierzać czas,,<<><<,0,0,0,1,,,,,0,13,13,22,,,,,,,,,,,,,,,,,,,,,464.395518386038,464.395518386038,right,0,0.46352318790741265,,,,,,4,21,M,N,2023-01-03_12h44.38.216,Flanker,2022.2.4,None,
Przez najbliższe 5 minut proszę kolorować otrzymaną pustą kartkę. Naciśnij spację aby zacząć odmierzać czas,,--<--,0,0,0,1,,,,,0,14,14,43,,,,,,,,,,,,,,,,,,,,,465.85790767497383,465.85790767497383,left,0,0.41021090908907354,,,,,,4,21,M,N,2023-01-03_12h44.38.216,Flanker,2022.2.4,None,
Przez najbliższe 5 minut proszę kolorować otrzymaną pustą kartkę. Naciśnij spację aby zacząć odmierzać czas,,>>>>>,0,0,0,1,,,,,0,15,15,0,,,,,,,,,,,,,,,,,,,,,467.284813178936,467.284813178936,right,0,0.5210603770101443,,,,,,4,21,M,N,2023-01-03_12h44.38.216,Flanker,2022.2.4,None,
Przez najbliższe 5 minut proszę kolorować otrzymaną pustą kartkę. Naciśnij spację aby zacząć odmierzać czas,,<<><<,0,0,0,1,,,,,0,16,16,27,,,,,,,,,,,,,,,,,,,,,468.82869396102615,468.82869396102615,left,0,0.38321456604171544,,,,,,4,21,M,N,2023-01-03_12h44.38.216,Flanker,2022.2.4,None,
Przez najbliższe 5 minut proszę kolorować otrzymaną pustą kartkę. Naciśnij spację aby zacząć odmierzać czas,,-->--,0,0,0,1,,,,,0,17,17,55,,,,,,,,,,,,,,,,,,,,,470.22891100798734,470.22891100798734,right,0,0.47404214402195066,,,,,,4,21,M,N,2023-01-03_12h44.38.216,Flanker,2022.2.4,None,
Przez najbliższe 5 minut proszę kolorować otrzymaną pustą kartkę. Naciśnij spację aby zacząć odmierzać czas,,-->--,0,0,0,1,,,,,0,18,18,52,,,,,,,,,,,,,,,,,,,,,471.7118639280088,471.7118639280088,right,0,0.440018825000152,,,,,,4,21,M,N,2023-01-03_12h44.38.216,Flanker,2022.2.4,None,
Przez najbliższe 5 minut proszę kolorować otrzymaną pustą kartkę. Naciśnij spację aby zacząć odmierzać czas,,<<<<<,0,0,0,1,,,,,0,19,19,12,,,,,,,,,,,,,,,,,,,,,473.17014083394315,473.17014083394315,left,0,0.4137145569548011,,,,,,4,21,M,N,2023-01-03_12h44.38.216,Flanker,2022.2.4,None,
Przez najbliższe 5 minut proszę kolorować otrzymaną pustą kartkę. Naciśnij spację aby zacząć odmierzać czas,,>><>>,0,0,0,1,,,,,0,20,20,31,,,,,,,,,,,,,,,,,,,,,474.59532274503727,474.59532274503727,left,0,0.6054662020178512,,,,,,4,21,M,N,2023-01-03_12h44.38.216,Flanker,2022.2.4,None,
Przez najbliższe 5 minut proszę kolorować otrzymaną pustą kartkę. Naciśnij spację aby zacząć odmierzać czas,,--<--,0,0,0,1,,,,,0,21,21,42,,,,,,,,,,,,,,,,,,,,,476.2113893049536,476.2113893049536,left,0,0.420496704056859,,,,,,4,21,M,N,2023-01-03_12h44.38.216,Flanker,2022.2.4,None,
Przez najbliższe 5 minut proszę kolorować otrzymaną pustą kartkę. Naciśnij spację aby zacząć odmierzać czas,,<<<<<,0,0,0,1,,,,,0,22,22,14,,,,,,,,,,,,,,,,,,,,,477.6461351120379,477.6461351120379,left,0,0.40063450997695327,,,,,,4,21,M,N,2023-01-03_12h44.38.216,Flanker,2022.2.4,None,
Przez najbliższe 5 minut proszę kolorować otrzymaną pustą kartkę. Naciśnij spację aby zacząć odmierzać czas,,>>>>>,0,0,0,1,,,,,0,23,23,7,,,,,,,,,,,,,,,,,,,,,479.0460417349823,479.0460417349823,right,0,0.4416801349725574,,,,,,4,21,M,N,2023-01-03_12h44.38.216,Flanker,2022.2.4,None,
Przez najbliższe 5 minut proszę kolorować otrzymaną pustą kartkę. Naciśnij spację aby zacząć odmierzać czas,,>><>>,0,0,0,1,,,,,0,24,24,34,,,,,,,,,,,,,,,,,,,,,480.49852495396044,480.49852495396044,left,0,0.45126232597976923,,,,,,4,21,M,N,2023-01-03_12h44.38.216,Flanker,2022.2.4,None,
Przez najbliższe 5 minut proszę kolorować otrzymaną pustą kartkę. Naciśnij spację aby zacząć odmierzać czas,,<<<<<,0,0,0,1,,,,,0,25,25,15,,,,,,,,,,,,,,,,,,,,,481.95680253894534,481.95680253894534,left,0,0.40593907004222274,,,,,,4,21,M,N,2023-01-03_12h44.38.216,Flanker,2022.2.4,None,
Przez najbliższe 5 minut proszę kolorować otrzymaną pustą kartkę. Naciśnij spację aby zacząć odmierzać czas,,<<<<<,0,0,0,1,,,,,0,26,26,19,,,,,,,,,,,,,,,,,,,,,483.382302455022,483.382302455022,left,0,0.4213393540121615,,,,,,4,21,M,N,2023-01-03_12h44.38.216,Flanker,2022.2.4,None,
Przez najbliższe 5 minut proszę kolorować otrzymaną pustą kartkę. Naciśnij spację aby zacząć odmierzać czas,,--<--,0,0,0,1,,,,,0,27,27,40,,,,,,,,,,,,,,,,,,,,,484.8061522829812,484.8061522829812,left,0,0.4103124589892104,,,,,,4,21,M,N,2023-01-03_12h44.38.216,Flanker,2022.2.4,None,
Przez najbliższe 5 minut proszę kolorować otrzymaną pustą kartkę. Naciśnij spację aby zacząć odmierzać czas,,>>>>>,0,0,0,1,,,,,0,28,28,9,,,,,,,,,,,,,,,,,,,,,486.2349418969825,486.2349418969825,right,0,0.45566378405783325,,,,,,4,21,M,N,2023-01-03_12h44.38.216,Flanker,2022.2.4,None,
Przez najbliższe 5 minut proszę kolorować otrzymaną pustą kartkę. Naciśnij spację aby zacząć odmierzać czas,,--<--,0,0,0,1,,,,,0,29,29,41,,,,,,,,,,,,,,,,,,,,,487.70132658898365,487.70132658898365,left,0,0.3754063140368089,,,,,,4,21,M,N,2023-01-03_12h44.38.216,Flanker,2022.2.4,None,
Przez najbliższe 5 minut proszę kolorować otrzymaną pustą kartkę. Naciśnij spację aby zacząć odmierzać czas,,--<--,0,0,0,1,,,,,0,30,30,44,,,,,,,,,,,,,,,,,,,,,489.10166187002324,489.10166187002324,left,0,0.3380116178886965,,,,,,4,21,M,N,2023-01-03_12h44.38.216,Flanker,2022.2.4,None,
Przez najbliższe 5 minut proszę kolorować otrzymaną pustą kartkę. Naciśnij spację aby zacząć odmierzać czas,,<<><<,0,0,0,1,,,,,0,31,31,26,,,,,,,,,,,,,,,,,,,,,490.45573001203593,490.45573001203593,right,0,0.4768052079016343,,,,,,4,21,M,N,2023-01-03_12h44.38.216,Flanker,2022.2.4,None,
Przez najbliższe 5 minut proszę kolorować otrzymaną pustą kartkę. Naciśnij spację aby zacząć odmierzać czas,,<<><<,0,0,0,1,,,,,0,32,32,28,,,,,,,,,,,,,,,,,,,,,491.941438334994,491.941438334994,right,0,0.5209787749918178,,,,,,4,21,M,N,2023-01-03_12h44.38.216,Flanker,2022.2.4,None,
Przez najbliższe 5 minut proszę kolorować otrzymaną pustą kartkę. Naciśnij spację aby zacząć odmierzać czas,,>>>>>,0,0,0,1,,,,,0,33,33,2,,,,,,,,,,,,,,,,,,,,,493.4861100410344,493.4861100410344,right,0,0.43225908500608057,,,,,,4,21,M,N,2023-01-03_12h44.38.216,Flanker,2022.2.4,None,
Przez najbliższe 5 minut proszę kolorować otrzymaną pustą kartkę. Naciśnij spację aby zacząć odmierzać czas,,>><>>,0,0,0,1,,,,,0,34,34,36,,,,,,,,,,,,,,,,,,,,,494.930698849028,494.930698849028,left,0,0.47263448301237077,,,,,,4,21,M,N,2023-01-03_12h44.38.216,Flanker,2022.2.4,None,
Przez najbliższe 5 minut proszę kolorować otrzymaną pustą kartkę. Naciśnij spację aby zacząć odmierzać czas,,>><>>,0,0,0,1,,,,,0,35,35,37,,,,,,,,,,,,,,,,,,,,,496.43214561895,496.43214561895,left,0,0.49721740593668073,,,,,,4,21,M,N,2023-01-03_12h44.38.216,Flanker,2022.2.4,None,
Przez najbliższe 5 minut proszę kolorować otrzymaną pustą kartkę. Naciśnij spację aby zacząć odmierzać czas,,<<><<,0,0,0,1,,,,,0,36,36,25,,,,,,,,,,,,,,,,,,,,,497.94235783896875,497.94235783896875,right,0,0.4769915209617466,,,,,,4,21,M,N,2023-01-03_12h44.38.216,Flanker,2022.2.4,None,
Przez najbliższe 5 minut proszę kolorować otrzymaną pustą kartkę. Naciśnij spację aby zacząć odmierzać czas,,-->--,0,0,0,1,,,,,0,37,37,54,,,,,,,,,,,,,,,,,,,,,499.46566777897533,499.46566777897533,right,0,0.39589331310708076,,,,,,4,21,M,N,2023-01-03_12h44.38.216,Flanker,2022.2.4,None,
Przez najbliższe 5 minut proszę kolorować otrzymaną pustą kartkę. Naciśnij spację aby zacząć odmierzać czas,,>>>>>,0,0,0,1,,,,,0,38,38,1,,,,,,,,,,,,,,,,,,,,,500.8774530389346,500.8774530389346,right,0,0.4508458999916911,,,,,,4,21,M,N,2023-01-03_12h44.38.216,Flanker,2022.2.4,None,
Przez najbliższe 5 minut proszę kolorować otrzymaną pustą kartkę. Naciśnij spację aby zacząć odmierzać czas,,<<><<,0,0,0,1,,,,,0,39,39,24,,,,,,,,,,,,,,,,,,,,,502.3433757069288,502.3433757069288,right,0,0.5309888200135902,,,,,,4,21,M,N,2023-01-03_12h44.38.216,Flanker,2022.2.4,None,
Przez najbliższe 5 minut proszę kolorować otrzymaną pustą kartkę. Naciśnij spację aby zacząć odmierzać czas,,>>>>>,0,0,0,1,,,,,0,40,40,3,,,,,,,,,,,,,,,,,,,,,503.89096011198126,503.89096011198126,right,0,0.40931646001990885,,,,,,4,21,M,N,2023-01-03_12h44.38.216,Flanker,2022.2.4,None,
Przez najbliższe 5 minut proszę kolorować otrzymaną pustą kartkę. Naciśnij spację aby zacząć odmierzać czas,,--<--,0,0,0,1,,,,,0,41,41,46,,,,,,,,,,,,,,,,,,,,,505.3137057329295,505.3137057329295,left,0,0.3915989779634401,,,,,,4,21,M,N,2023-01-03_12h44.38.216,Flanker,2022.2.4,None,
Przez najbliższe 5 minut proszę kolorować otrzymaną pustą kartkę. Naciśnij spację aby zacząć odmierzać czas,,-->--,0,0,0,1,,,,,0,42,42,57,,,,,,,,,,,,,,,,,,,,,506.7320767500205,506.7320767500205,right,0,0.35014294600114226,,,,,,4,21,M,N,2023-01-03_12h44.38.216,Flanker,2022.2.4,None,
Przez najbliższe 5 minut proszę kolorować otrzymaną pustą kartkę. Naciśnij spację aby zacząć odmierzać czas,,>>>>>,0,0,0,1,,,,,0,43,43,8,,,,,,,,,,,,,,,,,,,,,508.0922068810323,508.0922068810323,right,0,0.3799041819293052,,,,,,4,21,M,N,2023-01-03_12h44.38.216,Flanker,2022.2.4,None,
Przez najbliższe 5 minut proszę kolorować otrzymaną pustą kartkę. Naciśnij spację aby zacząć odmierzać czas,,>><>>,0,0,0,1,,,,,0,44,44,32,,,,,,,,,,,,,,,,,,,,,509.48413970693946,509.48413970693946,left,0,0.3572172230342403,,,,,,4,21,M,N,2023-01-03_12h44.38.216,Flanker,2022.2.4,None,
Przez najbliższe 5 minut proszę kolorować otrzymaną pustą kartkę. Naciśnij spację aby zacząć odmierzać czas,,>><>>,0,0,0,1,,,,,0,45,45,33,,,,,,,,,,,,,,,,,,,,,510.85709184396546,510.85709184396546,left,0,0.5081816880265251,,,,,,4,21,M,N,2023-01-03_12h44.38.216,Flanker,2022.2.4,None,
Przez najbliższe 5 minut proszę kolorować otrzymaną pustą kartkę. Naciśnij spację aby zacząć odmierzać czas,,>><>>,0,0,0,1,,,,,0,46,46,30,,,,,,,,,,,,,,,,,,,,,512.3688234760193,512.3688234760193,left,0,0.5253096809610724,,,,,,4,21,M,N,2023-01-03_12h44.38.216,Flanker,2022.2.4,None,
Przez najbliższe 5 minut proszę kolorować otrzymaną pustą kartkę. Naciśnij spację aby zacząć odmierzać czas,,-->--,0,0,0,1,,,,,0,47,47,50,,,,,,,,,,,,,,,,,,,,,513.9060468359385,513.9060468359385,right,0,0.36500277696177363,,,,,,4,21,M,N,2023-01-03_12h44.38.216,Flanker,2022.2.4,None,
Przez najbliższe 5 minut proszę kolorować otrzymaną pustą kartkę. Naciśnij spację aby zacząć odmierzać czas,,<<><<,0,0,0,1,,,,,0,48,48,20,,,,,,,,,,,,,,,,,,,,,515.2986750609707,515.2986750609707,left,0,0.3925239749951288,,,,,,4,21,M,N,2023-01-03_12h44.38.216,Flanker,2022.2.4,None,
Przez najbliższe 5 minut proszę kolorować otrzymaną pustą kartkę. Naciśnij spację aby zacząć odmierzać czas,,>>>>>,0,0,0,1,,,,,0,49,49,4,,,,,,,,,,,,,,,,,,,,,516.7280761789298,516.7280761789298,right,0,0.45794537605252117,,,,,,4,21,M,N,2023-01-03_12h44.38.216,Flanker,2022.2.4,None,
Przez najbliższe 5 minut proszę kolorować otrzymaną pustą kartkę. Naciśnij spację aby zacząć odmierzać czas,,<<<<<,0,0,0,1,,,,,0,50,50,10,,,,,,,,,,,,,,,,,,,,,518.1948339940282,518.1948339940282,left,0,0.482135251048021,,,,,,4,21,M,N,2023-01-03_12h44.38.216,Flanker,2022.2.4,None,
Przez najbliższe 5 minut proszę kolorować otrzymaną pustą kartkę. Naciśnij spację aby zacząć odmierzać czas,,-->--,0,0,0,1,,,,,0,51,51,59,,,,,,,,,,,,,,,,,,,,,519.7151913900161,519.7151913900161,right,0,0.5616788199404255,,,,,,4,21,M,N,2023-01-03_12h44.38.216,Flanker,2022.2.4,None,
Przez najbliższe 5 minut proszę kolorować otrzymaną pustą kartkę. Naciśnij spację aby zacząć odmierzać czas,,<<<<<,0,0,0,1,,,,,0,52,52,11,,,,,,,,,,,,,,,,,,,,,521.2887368520023,521.2887368520023,left,0,0.4522758621023968,,,,,,4,21,M,N,2023-01-03_12h44.38.216,Flanker,2022.2.4,None,
Przez najbliższe 5 minut proszę kolorować otrzymaną pustą kartkę. Naciśnij spację aby zacząć odmierzać czas,,<<><<,0,0,0,1,,,,,0,53,53,23,,,,,,,,,,,,,,,,,,,,,522.7514526969753,522.7514526969753,right,0,0.4513784060254693,,,,,,4,21,M,N,2023-01-03_12h44.38.216,Flanker,2022.2.4,None,
Przez najbliższe 5 minut proszę kolorować otrzymaną pustą kartkę. Naciśnij spację aby zacząć odmierzać czas,,-->--,0,0,0,1,,,,,0,54,54,56,,,,,,,,,,,,,,,,,,,,,524.2040870729834,524.2040870729834,right,0,0.46152124705258757,,,,,,4,21,M,N,2023-01-03_12h44.38.216,Flanker,2022.2.4,None,
Przez najbliższe 5 minut proszę kolorować otrzymaną pustą kartkę. Naciśnij spację aby zacząć odmierzać czas,,-->--,0,0,0,1,,,,,0,55,55,58,,,,,,,,,,,,,,,,,,,,,525.684010367957,525.684010367957,right,0,0.47284741699695587,,,,,,4,21,M,N,2023-01-03_12h44.38.216,Flanker,2022.2.4,None,
Przez najbliższe 5 minut proszę kolorować otrzymaną pustą kartkę. Naciśnij spację aby zacząć odmierzać czas,,--<--,0,0,0,1,,,,,0,56,56,49,,,,,,,,,,,,,,,,,,,,,527.1642631429713,527.1642631429713,left,0,0.5775329259922728,,,,,,4,21,M,N,2023-01-03_12h44.38.216,Flanker,2022.2.4,None,
Przez najbliższe 5 minut proszę kolorować otrzymaną pustą kartkę. Naciśnij spację aby zacząć odmierzać czas,,>><>>,0,0,0,1,,,,,0,57,57,38,,,,,,,,,,,,,,,,,,,,,528.7520217490382,528.7520217490382,left,0,0.5707286630058661,,,,,,4,21,M,N,2023-01-03_12h44.38.216,Flanker,2022.2.4,None,
Przez najbliższe 5 minut proszę kolorować otrzymaną pustą kartkę. Naciśnij spację aby zacząć odmierzać czas,,-->--,0,0,0,1,,,,,0,58,58,51,,,,,,,,,,,,,,,,,,,,,530.3228144409368,530.3228144409368,right,0,0.5168193969875574,,,,,,4,21,M,N,2023-01-03_12h44.38.216,Flanker,2022.2.4,None,
Przez najbliższe 5 minut proszę kolorować otrzymaną pustą kartkę. Naciśnij spację aby zacząć odmierzać czas,,>><>>,0,0,0,1,,,,,0,59,59,35,,,,,,,,,,,,,,,,,,,,,531.8501146869967,531.8501146869967,left,0,0.5165276300394908,,,,,,4,21,M,N,2023-01-03_12h44.38.216,Flanker,2022.2.4,None,
Przez najbliższe 5 minut proszę kolorować otrzymaną pustą kartkę. Naciśnij spację aby zacząć odmierzać czas,,,0,0,0,1,,,,,,,,,,,,,,,,,,,,,,,,,,,,,,,,,,,,,,,4,21,M,N,2023-01-03_12h44.38.216,Flanker,2022.2.4,None,
Przez najbliższe 5 minut proszę kolorować otrzymaną kolorwankę z mandalą. Naciśnij spację aby zacząć odmierzać czas,--<--,,0,1,1,0,0,0,0,4,,,,,,,,,532.4123768929858,533.374662298942,space,7.13502928300295,540.5340113439597,840.535416470957,842.5235623059561,space,6.665912715019658,849.2301052169641,858.2146257499699,858.2146257499699,left,0,0.8640631979797035,,,,,,,,,,,,4,21,M,N,2023-01-03_12h44.38.216,Flanker,2022.2.4,None,
Przez najbliższe 5 minut proszę kolorować otrzymaną kolorwankę z mandalą. Naciśnij spację aby zacząć odmierzać czas,<<><<,,0,1,1,0,0,1,1,2,,,,,,,,,,,,,,,,,,,860.1108830160229,860.1108830160229,right,0,0.7416398900095373,,,,,,,,,,,,4,21,M,N,2023-01-03_12h44.38.216,Flanker,2022.2.4,None,
Przez najbliższe 5 minut proszę kolorować otrzymaną kolorwankę z mandalą. Naciśnij spację aby zacząć odmierzać czas,>>>>>,,0,1,1,0,0,2,2,1,,,,,,,,,,,,,,,,,,,861.8624192390125,861.8624192390125,right,0,0.40387748391367495,,,,,,,,,,,,4,21,M,N,2023-01-03_12h44.38.216,Flanker,2022.2.4,None,
Przez najbliższe 5 minut proszę kolorować otrzymaną kolorwankę z mandalą. Naciśnij spację aby zacząć odmierzać czas,<<<<<,,0,1,1,0,0,3,3,0,,,,,,,,,,,,,,,,,,,863.2899224780267,863.2899224780267,left,0,0.3813434389885515,,,,,,,,,,,,4,21,M,N,2023-01-03_12h44.38.216,Flanker,2022.2.4,None,
Przez najbliższe 5 minut proszę kolorować otrzymaną kolorwankę z mandalą. Naciśnij spację aby zacząć odmierzać czas,>><>>,,0,1,1,0,0,4,4,3,,,,,,,,,,,,,,,,,,,864.6791209810181,864.6791209810181,left,0,0.5711493230191991,,,,,,,,,,,,4,21,M,N,2023-01-03_12h44.38.216,Flanker,2022.2.4,None,
Przez najbliższe 5 minut proszę kolorować otrzymaną kolorwankę z mandalą. Naciśnij spację aby zacząć odmierzać czas,-->--,,0,1,1,0,0,5,5,5,,,,,,,,,,,,,,,,,,,866.2790580309229,866.2790580309229,right,0,0.44213844498153776,,,,,,,,,,,,4,21,M,N,2023-01-03_12h44.38.216,Flanker,2022.2.4,None,
Przez najbliższe 5 minut proszę kolorować otrzymaną kolorwankę z mandalą. Naciśnij spację aby zacząć odmierzać czas,,<<><<,0,1,1,0,,,,,0,0,0,22,,,,,,,,,,,,,,,,,,,,867.7368624309311,875.7454286069842,875.7454286069842,right,0,0.6141022999072447,874.7452923340024,,,,,4,21,M,N,2023-01-03_12h44.38.216,Flanker,2022.2.4,None,
Przez najbliższe 5 minut proszę kolorować otrzymaną kolorwankę z mandalą. Naciśnij spację aby zacząć odmierzać czas,,>><>>,0,1,1,0,,,,,0,1,1,38,,,,,,,,,,,,,,,,,,,,,877.3799215849722,877.3799215849722,left,0,0.4826201250543818,,,,,,4,21,M,N,2023-01-03_12h44.38.216,Flanker,2022.2.4,None,
Przez najbliższe 5 minut proszę kolorować otrzymaną kolorwankę z mandalą. Naciśnij spację aby zacząć odmierzać czas,,--<--,0,1,1,0,,,,,0,2,2,48,,,,,,,,,,,,,,,,,,,,,878.8572069479851,878.8572069479851,left,0,0.4371735469903797,,,,,,4,21,M,N,2023-01-03_12h44.38.216,Flanker,2022.2.4,None,
Przez najbliższe 5 minut proszę kolorować otrzymaną kolorwankę z mandalą. Naciśnij spację aby zacząć odmierzać czas,,--<--,0,1,1,0,,,,,0,3,3,40,,,,,,,,,,,,,,,,,,,,,880.3029086119495,880.3029086119495,left,0,0.4505230049835518,,,,,,4,21,M,N,2023-01-03_12h44.38.216,Flanker,2022.2.4,None,
Przez najbliższe 5 minut proszę kolorować otrzymaną kolorwankę z mandalą. Naciśnij spację aby zacząć odmierzać czas,,>>>>>,0,1,1,0,,,,,0,4,4,6,,,,,,,,,,,,,,,,,,,,,881.7582732519368,881.7582732519368,right,0,0.4320794619852677,,,,,,4,21,M,N,2023-01-03_12h44.38.216,Flanker,2022.2.4,None,
Przez najbliższe 5 minut proszę kolorować otrzymaną kolorwankę z mandalą. Naciśnij spację aby zacząć odmierzać czas,,--<--,0,1,1,0,,,,,0,5,5,41,,,,,,,,,,,,,,,,,,,,,883.189070752007,883.189070752007,left,0,0.4282412480097264,,,,,,4,21,M,N,2023-01-03_12h44.38.216,Flanker,2022.2.4,None,
Przez najbliższe 5 minut proszę kolorować otrzymaną kolorwankę z mandalą. Naciśnij spację aby zacząć odmierzać czas,,-->--,0,1,1,0,,,,,0,6,6,53,,,,,,,,,,,,,,,,,,,,,884.6399099129485,884.6399099129485,right,0,0.35625986009836197,,,,,,4,21,M,N,2023-01-03_12h44.38.216,Flanker,2022.2.4,None,
Przez najbliższe 5 minut proszę kolorować otrzymaną kolorwankę z mandalą. Naciśnij spację aby zacząć odmierzać czas,,<<><<,0,1,1,0,,,,,0,7,7,28,,,,,,,,,,,,,,,,,,,,,886.0291331310291,886.0291331310291,right,0,0.5262484040576965,,,,,,4,21,M,N,2023-01-03_12h44.38.216,Flanker,2022.2.4,None,
Przez najbliższe 5 minut proszę kolorować otrzymaną kolorwankę z mandalą. Naciśnij spację aby zacząć odmierzać czas,,>><>>,0,1,1,0,,,,,0,8,8,39,,,,,,,,,,,,,,,,,,,,,887.5669546739664,887.5669546739664,left,0,0.5355734030017629,,,,,,4,21,M,N,2023-01-03_12h44.38.216,Flanker,2022.2.4,None,
Przez najbliższe 5 minut proszę kolorować otrzymaną kolorwankę z mandalą. Naciśnij spację aby zacząć odmierzać czas,,>>>>>,0,1,1,0,,,,,0,9,9,7,,,,,,,,,,,,,,,,,,,,,889.1228396230144,889.1228396230144,right,0,0.39440301596187055,,,,,,4,21,M,N,2023-01-03_12h44.38.216,Flanker,2022.2.4,None,
Przez najbliższe 5 minut proszę kolorować otrzymaną kolorwankę z mandalą. Naciśnij spację aby zacząć odmierzać czas,,<<><<,0,1,1,0,,,,,0,10,10,21,,,,,,,,,,,,,,,,,,,,,890.5303767059231,890.5303767059231,right,0,0.5849587889388204,,,,,,4,21,M,N,2023-01-03_12h44.38.216,Flanker,2022.2.4,None,
Przez najbliższe 5 minut proszę kolorować otrzymaną kolorwankę z mandalą. Naciśnij spację aby zacząć odmierzać czas,,--<--,0,1,1,0,,,,,0,11,11,49,,,,,,,,,,,,,,,,,,,,,892.1237034029327,892.1237034029327,left,0,0.45526233001146466,,,,,,4,21,M,N,2023-01-03_12h44.38.216,Flanker,2022.2.4,None,
Przez najbliższe 5 minut proszę kolorować otrzymaną kolorwankę z mandalą. Naciśnij spację aby zacząć odmierzać czas,,-->--,0,1,1,0,,,,,0,12,12,54,,,,,,,,,,,,,,,,,,,,,893.5843859289307,893.5843859289307,right,0,0.5547355830203742,,,,,,4,21,M,N,2023-01-03_12h44.38.216,Flanker,2022.2.4,None,
Przez najbliższe 5 minut proszę kolorować otrzymaną kolorwankę z mandalą. Naciśnij spację aby zacząć odmierzać czas,,<<><<,0,1,1,0,,,,,0,13,13,27,,,,,,,,,,,,,,,,,,,,,895.146145767998,895.146145767998,right,0,0.5699421489844099,,,,,,4,21,M,N,2023-01-03_12h44.38.216,Flanker,2022.2.4,None,
Przez najbliższe 5 minut proszę kolorować otrzymaną kolorwankę z mandalą. Naciśnij spację aby zacząć odmierzać czas,,<<<<<,0,1,1,0,,,,,0,14,14,11,,,,,,,,,,,,,,,,,,,,,896.7246786169708,896.7246786169708,left,0,0.4504973909351975,,,,,,4,21,M,N,2023-01-03_12h44.38.216,Flanker,2022.2.4,None,
Przez najbliższe 5 minut proszę kolorować otrzymaną kolorwankę z mandalą. Naciśnij spację aby zacząć odmierzać czas,,>>>>>,0,1,1,0,,,,,0,15,15,4,,,,,,,,,,,,,,,,,,,,,898.1843617280247,898.1843617280247,right,0,0.41566035500727594,,,,,,4,21,M,N,2023-01-03_12h44.38.216,Flanker,2022.2.4,None,
Przez najbliższe 5 minut proszę kolorować otrzymaną kolorwankę z mandalą. Naciśnij spację aby zacząć odmierzać czas,,-->--,0,1,1,0,,,,,0,16,16,55,,,,,,,,,,,,,,,,,,,,,899.6125975649338,899.6125975649338,right,0,0.40140532597433776,,,,,,4,21,M,N,2023-01-03_12h44.38.216,Flanker,2022.2.4,None,
Przez najbliższe 5 minut proszę kolorować otrzymaną kolorwankę z mandalą. Naciśnij spację aby zacząć odmierzać czas,,<<<<<,0,1,1,0,,,,,0,17,17,17,,,,,,,,,,,,,,,,,,,,,901.0161561330315,901.0161561330315,left,0,0.41265963402111083,,,,,,4,21,M,N,2023-01-03_12h44.38.216,Flanker,2022.2.4,None,
Przez najbliższe 5 minut proszę kolorować otrzymaną kolorwankę z mandalą. Naciśnij spację aby zacząć odmierzać czas,,<<<<<,0,1,1,0,,,,,0,18,18,19,,,,,,,,,,,,,,,,,,,,,902.4484086069278,902.4484086069278,left,0,0.5366021490190178,,,,,,4,21,M,N,2023-01-03_12h44.38.216,Flanker,2022.2.4,None,
Przez najbliższe 5 minut proszę kolorować otrzymaną kolorwankę z mandalą. Naciśnij spację aby zacząć odmierzać czas,,>>>>> ,0,1,1,0,,,,,0,19,19,5,,,,,,,,,,,,,,,,,,,,,904.0008834670298,904.0008834670298,right,0,0.40581989102065563,,,,,,4,21,M,N,2023-01-03_12h44.38.216,Flanker,2022.2.4,None,
Przez najbliższe 5 minut proszę kolorować otrzymaną kolorwankę z mandalą. Naciśnij spację aby zacząć odmierzać czas,,>><>>,0,1,1,0,,,,,0,20,20,35,,,,,,,,,,,,,,,,,,,,,905.445082281949,905.445082281949,left,0,0.5038554259808734,,,,,,4,21,M,N,2023-01-03_12h44.38.216,Flanker,2022.2.4,None,
Przez najbliższe 5 minut proszę kolorować otrzymaną kolorwankę z mandalą. Naciśnij spację aby zacząć odmierzać czas,,<<><<,0,1,1,0,,,,,0,21,21,25,,,,,,,,,,,,,,,,,,,,,906.9527034559287,906.9527034559287,right,0,0.46905789303127676,,,,,,4,21,M,N,2023-01-03_12h44.38.216,Flanker,2022.2.4,None,
Przez najbliższe 5 minut proszę kolorować otrzymaną kolorwankę z mandalą. Naciśnij spację aby zacząć odmierzać czas,,>><>>,0,1,1,0,,,,,0,22,22,32,,,,,,,,,,,,,,,,,,,,,908.4335419839481,908.4335419839481,left,0,0.5242289539892226,,,,,,4,21,M,N,2023-01-03_12h44.38.216,Flanker,2022.2.4,None,
Przez najbliższe 5 minut proszę kolorować otrzymaną kolorwankę z mandalą. Naciśnij spację aby zacząć odmierzać czas,,<<><<,0,1,1,0,,,,,0,23,23,23,,,,,,,,,,,,,,,,,,,,,909.9580515739508,909.9580515739508,right,0,0.45961401402018964,,,,,,4,21,M,N,2023-01-03_12h44.38.216,Flanker,2022.2.4,None,
Przez najbliższe 5 minut proszę kolorować otrzymaną kolorwankę z mandalą. Naciśnij spację aby zacząć odmierzać czas,,--<--,0,1,1,0,,,,,0,24,24,43,,,,,,,,,,,,,,,,,,,,,911.4306378320325,911.4306378320325,left,0,0.46234430198092014,,,,,,4,21,M,N,2023-01-03_12h44.38.216,Flanker,2022.2.4,None,
Przez najbliższe 5 minut proszę kolorować otrzymaną kolorwankę z mandalą. Naciśnij spację aby zacząć odmierzać czas,,--<--,0,1,1,0,,,,,0,25,25,44,,,,,,,,,,,,,,,,,,,,,912.9137454900192,912.9137454900192,left,0,0.4319143310422078,,,,,,4,21,M,N,2023-01-03_12h44.38.216,Flanker,2022.2.4,None,
Przez najbliższe 5 minut proszę kolorować otrzymaną kolorwankę z mandalą. Naciśnij spację aby zacząć odmierzać czas,,>>>>>,0,1,1,0,,,,,0,26,26,1,,,,,,,,,,,,,,,,,,,,,914.3589950739406,914.3589950739406,right,0,0.43481528805568814,,,,,,4,21,M,N,2023-01-03_12h44.38.216,Flanker,2022.2.4,None,
Przez najbliższe 5 minut proszę kolorować otrzymaną kolorwankę z mandalą. Naciśnij spację aby zacząć odmierzać czas,,--<--,0,1,1,0,,,,,0,27,27,42,,,,,,,,,,,,,,,,,,,,,915.8006863619667,915.8006863619667,left,0,0.42690357798710465,,,,,,4,21,M,N,2023-01-03_12h44.38.216,Flanker,2022.2.4,None,
Przez najbliższe 5 minut proszę kolorować otrzymaną kolorwankę z mandalą. Naciśnij spację aby zacząć odmierzać czas,,<<<<<,0,1,1,0,,,,,0,28,28,16,,,,,,,,,,,,,,,,,,,,,917.2350410759682,917.2350410759682,left,0,0.48851531906984746,,,,,,4,21,M,N,2023-01-03_12h44.38.216,Flanker,2022.2.4,None,
Przez najbliższe 5 minut proszę kolorować otrzymaną kolorwankę z mandalą. Naciśnij spację aby zacząć odmierzać czas,,>><>>,0,1,1,0,,,,,0,29,29,33,,,,,,,,,,,,,,,,,,,,,918.7361428330187,918.7361428330187,left,0,0.6145029399776831,,,,,,4,21,M,N,2023-01-03_12h44.38.216,Flanker,2022.2.4,None,
Przez najbliższe 5 minut proszę kolorować otrzymaną kolorwankę z mandalą. Naciśnij spację aby zacząć odmierzać czas,,--<--,0,1,1,0,,,,,0,30,30,46,,,,,,,,,,,,,,,,,,,,,920.3673399769468,920.3673399769468,left,0,0.4482799720717594,,,,,,4,21,M,N,2023-01-03_12h44.38.216,Flanker,2022.2.4,None,
Przez najbliższe 5 minut proszę kolorować otrzymaną kolorwankę z mandalą. Naciśnij spację aby zacząć odmierzać czas,,>><>>,0,1,1,0,,,,,0,31,31,30,,,,,,,,,,,,,,,,,,,,,921.8246545760194,921.8246545760194,left,0,0.5367533949902281,,,,,,4,21,M,N,2023-01-03_12h44.38.216,Flanker,2022.2.4,None,
Przez najbliższe 5 minut proszę kolorować otrzymaną kolorwankę z mandalą. Naciśnij spację aby zacząć odmierzać czas,,--<--,0,1,1,0,,,,,0,32,32,47,,,,,,,,,,,,,,,,,,,,,923.3794247430051,923.3794247430051,left,0,0.4591845659306273,,,,,,4,21,M,N,2023-01-03_12h44.38.216,Flanker,2022.2.4,None,
Przez najbliższe 5 minut proszę kolorować otrzymaną kolorwankę z mandalą. Naciśnij spację aby zacząć odmierzać czas,,<<><<,0,1,1,0,,,,,0,33,33,24,,,,,,,,,,,,,,,,,,,,,924.8394090059446,924.8394090059446,right,0,0.704061727039516,,,,,,4,21,M,N,2023-01-03_12h44.38.216,Flanker,2022.2.4,None,
Przez najbliższe 5 minut proszę kolorować otrzymaną kolorwankę z mandalą. Naciśnij spację aby zacząć odmierzać czas,,-->--,0,1,1,0,,,,,0,34,34,59,,,,,,,,,,,,,,,,,,,,,926.561453524977,926.561453524977,right,0,0.4628794799791649,,,,,,4,21,M,N,2023-01-03_12h44.38.216,Flanker,2022.2.4,None,
Przez najbliższe 5 minut proszę kolorować otrzymaną kolorwankę z mandalą. Naciśnij spację aby zacząć odmierzać czas,,--<--,0,1,1,0,,,,,0,35,35,45,,,,,,,,,,,,,,,,,,,,,928.0447849689517,928.0447849689517,left,0,0.6285976120270789,,,,,,4,21,M,N,2023-01-03_12h44.38.216,Flanker,2022.2.4,None,
Przez najbliższe 5 minut proszę kolorować otrzymaną kolorwankę z mandalą. Naciśnij spację aby zacząć odmierzać czas,,>><>>,0,1,1,0,,,,,0,36,36,31,,,,,,,,,,,,,,,,,,,,,929.6932283579372,929.6932283579372,left,0,0.5801808009855449,,,,,,4,21,M,N,2023-01-03_12h44.38.216,Flanker,2022.2.4,None,
Przez najbliższe 5 minut proszę kolorować otrzymaną kolorwankę z mandalą. Naciśnij spację aby zacząć odmierzać czas,,<<<<<,0,1,1,0,,,,,0,37,37,15,,,,,,,,,,,,,,,,,,,,,931.3073858909775,931.3073858909775,left,0,0.44891691696830094,,,,,,4,21,M,N,2023-01-03_12h44.38.216,Flanker,2022.2.4,None,
Przez najbliższe 5 minut proszę kolorować otrzymaną kolorwankę z mandalą. Naciśnij spację aby zacząć odmierzać czas,,>>>>>,0,1,1,0,,,,,0,38,38,3,,,,,,,,,,,,,,,,,,,,,932.7593710969668,932.7593710969668,right,0,0.5028422470204532,,,,,,4,21,M,N,2023-01-03_12h44.38.216,Flanker,2022.2.4,None,
Przez najbliższe 5 minut proszę kolorować otrzymaną kolorwankę z mandalą. Naciśnij spację aby zacząć odmierzać czas,,>><>>,0,1,1,0,,,,,0,39,39,34,,,,,,,,,,,,,,,,,,,,,934.2725157509558,934.2725157509558,left,0,0.48473926598671824,,,,,,4,21,M,N,2023-01-03_12h44.38.216,Flanker,2022.2.4,None,
Przez najbliższe 5 minut proszę kolorować otrzymaną kolorwankę z mandalą. Naciśnij spację aby zacząć odmierzać czas,,>>>>>,0,1,1,0,,,,,0,40,40,9,,,,,,,,,,,,,,,,,,,,,935.7619116200367,935.7619116200367,right,0,0.37242587201762944,,,,,,4,21,M,N,2023-01-03_12h44.38.216,Flanker,2022.2.4,None,
Przez najbliższe 5 minut proszę kolorować otrzymaną kolorwankę z mandalą. Naciśnij spację aby zacząć odmierzać czas,,<<<<<,0,1,1,0,,,,,0,41,41,12,,,,,,,,,,,,,,,,,,,,,937.1396741300123,937.1396741300123,left,0,0.44943239097483456,,,,,,4,21,M,N,2023-01-03_12h44.38.216,Flanker,2022.2.4,None,
Przez najbliższe 5 minut proszę kolorować otrzymaną kolorwankę z mandalą. Naciśnij spację aby zacząć odmierzać czas,,-->--,0,1,1,0,,,,,0,42,42,52,,,,,,,,,,,,,,,,,,,,,938.6001637299778,938.6001637299778,right,0,0.5700606640893966,,,,,,4,21,M,N,2023-01-03_12h44.38.216,Flanker,2022.2.4,None,
Przez najbliższe 5 minut proszę kolorować otrzymaną kolorwankę z mandalą. Naciśnij spację aby zacząć odmierzać czas,,-->--,0,1,1,0,,,,,0,43,43,57,,,,,,,,,,,,,,,,,,,,,940.182133128983,940.182133128983,right,0,0.4250636330107227,,,,,,4,21,M,N,2023-01-03_12h44.38.216,Flanker,2022.2.4,None,
Przez najbliższe 5 minut proszę kolorować otrzymaną kolorwankę z mandalą. Naciśnij spację aby zacząć odmierzać czas,,<<><<,0,1,1,0,,,,,0,44,44,20,,,,,,,,,,,,,,,,,,,,,941.6177111000288,941.6177111000288,right,0,0.523551617981866,,,,,,4,21,M,N,2023-01-03_12h44.38.216,Flanker,2022.2.4,None,
Przez najbliższe 5 minut proszę kolorować otrzymaną kolorwankę z mandalą. Naciśnij spację aby zacząć odmierzać czas,,>>>>>,0,1,1,0,,,,,0,45,45,2,,,,,,,,,,,,,,,,,,,,,943.154904379975,943.154904379975,right,0,0.4450954069616273,,,,,,4,21,M,N,2023-01-03_12h44.38.216,Flanker,2022.2.4,None,
Przez najbliższe 5 minut proszę kolorować otrzymaną kolorwankę z mandalą. Naciśnij spację aby zacząć odmierzać czas,,-->--,0,1,1,0,,,,,0,46,46,56,,,,,,,,,,,,,,,,,,,,,944.6052207929315,944.6052207929315,right,0,0.40787591598927975,,,,,,4,21,M,N,2023-01-03_12h44.38.216,Flanker,2022.2.4,None,
Przez najbliższe 5 minut proszę kolorować otrzymaną kolorwankę z mandalą. Naciśnij spację aby zacząć odmierzać czas,,-->--,0,1,1,0,,,,,0,47,47,50,,,,,,,,,,,,,,,,,,,,,946.0281970190117,946.0281970190117,right,0,0.3499023619806394,,,,,,4,21,M,N,2023-01-03_12h44.38.216,Flanker,2022.2.4,None,
Przez najbliższe 5 minut proszę kolorować otrzymaną kolorwankę z mandalą. Naciśnij spację aby zacząć odmierzać czas,,>>>>>,0,1,1,0,,,,,0,48,48,8,,,,,,,,,,,,,,,,,,,,,947.3885331769707,947.3885331769707,right,0,0.37054891500156373,,,,,,4,21,M,N,2023-01-03_12h44.38.216,Flanker,2022.2.4,None,
Przez najbliższe 5 minut proszę kolorować otrzymaną kolorwankę z mandalą. Naciśnij spację aby zacząć odmierzać czas,,<<<<<,0,1,1,0,,,,,0,49,49,10,,,,,,,,,,,,,,,,,,,,,948.7763451100327,948.7763451100327,left,0,0.43957720696926117,,,,,,4,21,M,N,2023-01-03_12h44.38.216,Flanker,2022.2.4,None,
Przez najbliższe 5 minut proszę kolorować otrzymaną kolorwankę z mandalą. Naciśnij spację aby zacząć odmierzać czas,,<<<<<,0,1,1,0,,,,,0,50,50,14,,,,,,,,,,,,,,,,,,,,,950.2429230969865,950.2429230969865,left,0,0.437156415078789,,,,,,4,21,M,N,2023-01-03_12h44.38.216,Flanker,2022.2.4,None,
Przez najbliższe 5 minut proszę kolorować otrzymaną kolorwankę z mandalą. Naciśnij spację aby zacząć odmierzać czas,,<<><<,0,1,1,0,,,,,0,51,51,26,,,,,,,,,,,,,,,,,,,,,951.6963880680269,951.6963880680269,right,0,0.5155145589960739,,,,,,4,21,M,N,2023-01-03_12h44.38.216,Flanker,2022.2.4,None,
Przez najbliższe 5 minut proszę kolorować otrzymaną kolorwankę z mandalą. Naciśnij spację aby zacząć odmierzać czas,,<<<<<,0,1,1,0,,,,,0,52,52,18,,,,,,,,,,,,,,,,,,,,,953.2123663059901,953.2123663059901,left,0,0.40047465404495597,,,,,,4,21,M,N,2023-01-03_12h44.38.216,Flanker,2022.2.4,None,
Przez najbliższe 5 minut proszę kolorować otrzymaną kolorwankę z mandalą. Naciśnij spację aby zacząć odmierzać czas,,>>>>>,0,1,1,0,,,,,0,53,53,0,,,,,,,,,,,,,,,,,,,,,954.6123778379988,954.6123778379988,right,0,0.32143867609556764,,,,,,4,21,M,N,2023-01-03_12h44.38.216,Flanker,2022.2.4,None,
Przez najbliższe 5 minut proszę kolorować otrzymaną kolorwankę z mandalą. Naciśnij spację aby zacząć odmierzać czas,,-->--,0,1,1,0,,,,,0,54,54,58,,,,,,,,,,,,,,,,,,,,,955.9382290149806,955.9382290149806,right,0,0.5204728830140084,,,,,,4,21,M,N,2023-01-03_12h44.38.216,Flanker,2022.2.4,None,
Przez najbliższe 5 minut proszę kolorować otrzymaną kolorwankę z mandalą. Naciśnij spację aby zacząć odmierzać czas,,>><>>,0,1,1,0,,,,,0,55,55,37,,,,,,,,,,,,,,,,,,,,,957.4670158090303,957.4670158090303,left,0,0.4318491220474243,,,,,,4,21,M,N,2023-01-03_12h44.38.216,Flanker,2022.2.4,None,
Przez najbliższe 5 minut proszę kolorować otrzymaną kolorwankę z mandalą. Naciśnij spację aby zacząć odmierzać czas,,-->--,0,1,1,0,,,,,0,56,56,51,,,,,,,,,,,,,,,,,,,,,958.9202652089298,958.9202652089298,right,0,0.34149117197375745,,,,,,4,21,M,N,2023-01-03_12h44.38.216,Flanker,2022.2.4,None,
Przez najbliższe 5 minut proszę kolorować otrzymaną kolorwankę z mandalą. Naciśnij spację aby zacząć odmierzać czas,,<<><<,0,1,1,0,,,,,0,57,57,29,,,,,,,,,,,,,,,,,,,,,960.2779564269586,960.2779564269586,right,0,0.4987952810479328,,,,,,4,21,M,N,2023-01-03_12h44.38.216,Flanker,2022.2.4,None,
Przez najbliższe 5 minut proszę kolorować otrzymaną kolorwankę z mandalą. Naciśnij spację aby zacząć odmierzać czas,,<<<<<,0,1,1,0,,,,,0,58,58,13,,,,,,,,,,,,,,,,,,,,,961.7919994359836,961.7919994359836,left,0,0.4438145109452307,,,,,,4,21,M,N,2023-01-03_12h44.38.216,Flanker,2022.2.4,None,
Przez najbliższe 5 minut proszę kolorować otrzymaną kolorwankę z mandalą. Naciśnij spację aby zacząć odmierzać czas,,>><>>,0,1,1,0,,,,,0,59,59,36,,,,,,,,,,,,,,,,,,,,,963.2503361250274,963.2503361250274,left,0,0.6562811309704557,,,,,,4,21,M,N,2023-01-03_12h44.38.216,Flanker,2022.2.4,None,
Przez najbliższe 5 minut proszę kolorować otrzymaną kolorwankę z mandalą. Naciśnij spację aby zacząć odmierzać czas,,,0,1,1,0,,,,,,,,,,,,,,,,,,,,,,,,,,,,,,,,,,,,,,,4,21,M,N,2023-01-03_12h44.38.216,Flanker,2022.2.4,None,
,,,,,,,,,,,,,,,,,,,,,,,,,,,,,,,,,,,,,,,,,964.9176864039619,964.9176864039619,space,1.4299542569788173,4,21,M,N,2023-01-03_12h44.38.216,Flanker,2022.2.4,None,
