kolorowanka,Example,Stimuli,proby.thisRepN,proby.thisTrialN,proby.thisN,proby.thisIndex,zapoznanie.thisRepN,zapoznanie.thisTrialN,zapoznanie.thisN,zapoznanie.thisIndex,Warunki.thisRepN,Warunki.thisTrialN,Warunki.thisN,Warunki.thisIndex,Intro.started,Intro_resp.started,Intro_resp.keys,Intro_resp.rt,Kolorowanie1.started,starttt.started,starttt.keys,starttt.rt,koloruj.started,Instruction.started,key_resp.started,key_resp.keys,key_resp.rt,Wyjasnienie.started,text.started,odp_przyk.started,odp_przyk.keys,odp_przyk.corr,odp_przyk.rt,zapo.started,Zadanie.started,Odp.started,Odp.keys,Odp.corr,Odp.rt,zapo.stopped,thanks.started,KONIEC.started,KONIEC.keys,KONIEC.rt,participant,Wiek (w latach),Płeć (K/M),Entropia,date,expName,psychopyVersion,frameRate,
,,,,,,,,,,,,,,,49.087667861022055,51.06067192403134,space,16.247432386036962,,,,,,,,,,,,,,,,,,,,,,,,,,,5,21,M,N,2023-01-03_13h01.36.745,Flanker,2022.2.4,None,
Przez najbliższe 5 minut proszę kolorować otrzymaną pustą kartkę. Naciśnij spację aby zacząć odmierzać czas,--<--,,0,0,0,1,0,0,0,4,,,,,,,,,67.3770571219502,68.32145047793165,space,17.280720578040928,85.62933373893611,385.62912208703347,387.61008315102663,space,34.71698215894867,422.34842254803516,431.3433751419652,431.3433751419652,left,0,0.5425296069588512,,,,,,,,,,,,5,21,M,N,2023-01-03_13h01.36.745,Flanker,2022.2.4,None,
Przez najbliższe 5 minut proszę kolorować otrzymaną pustą kartkę. Naciśnij spację aby zacząć odmierzać czas,>><>>,,0,0,0,1,0,1,1,3,,,,,,,,,,,,,,,,,,,432.8942021370167,432.8942021370167,left,0,1.5864166860701516,,,,,,,,,,,,5,21,M,N,2023-01-03_13h01.36.745,Flanker,2022.2.4,None,
Przez najbliższe 5 minut proszę kolorować otrzymaną pustą kartkę. Naciśnij spację aby zacząć odmierzać czas,-->--,,0,0,0,1,0,2,2,5,,,,,,,,,,,,,,,,,,,435.49725317501,435.49725317501,right,0,0.6113988399738446,,,,,,,,,,,,5,21,M,N,2023-01-03_13h01.36.745,Flanker,2022.2.4,None,
Przez najbliższe 5 minut proszę kolorować otrzymaną pustą kartkę. Naciśnij spację aby zacząć odmierzać czas,<<><<,,0,0,0,1,0,3,3,2,,,,,,,,,,,,,,,,,,,437.1232932219282,437.1232932219282,left,0,0.6663072630763054,,,,,,,,,,,,5,21,M,N,2023-01-03_13h01.36.745,Flanker,2022.2.4,None,
Przez najbliższe 5 minut proszę kolorować otrzymaną pustą kartkę. Naciśnij spację aby zacząć odmierzać czas,>>>>>,,0,0,0,1,0,4,4,1,,,,,,,,,,,,,,,,,,,438.801095252973,438.801095252973,right,0,0.6224428049754351,,,,,,,,,,,,5,21,M,N,2023-01-03_13h01.36.745,Flanker,2022.2.4,None,
Przez najbliższe 5 minut proszę kolorować otrzymaną pustą kartkę. Naciśnij spację aby zacząć odmierzać czas,<<<<<,,0,0,0,1,0,5,5,0,,,,,,,,,,,,,,,,,,,440.4406420190353,440.4406420190353,left,0,0.45990244299173355,,,,,,,,,,,,5,21,M,N,2023-01-03_13h01.36.745,Flanker,2022.2.4,None,
Przez najbliższe 5 minut proszę kolorować otrzymaną pustą kartkę. Naciśnij spację aby zacząć odmierzać czas,,>>>>> ,0,0,0,1,,,,,0,0,0,5,,,,,,,,,,,,,,,,,,,,441.9127120350022,449.9090048780199,449.9090048780199,right,0,0.9404065599665046,,,,,,5,21,M,N,2023-01-03_13h01.36.745,Flanker,2022.2.4,None,
Przez najbliższe 5 minut proszę kolorować otrzymaną pustą kartkę. Naciśnij spację aby zacząć odmierzać czas,,>>>>>,0,0,0,1,,,,,0,1,1,0,,,,,,,,,,,,,,,,,,,,,451.8651874900097,451.8651874900097,right,0,0.4449534590821713,,,,,,5,21,M,N,2023-01-03_13h01.36.745,Flanker,2022.2.4,None,
Przez najbliższe 5 minut proszę kolorować otrzymaną pustą kartkę. Naciśnij spację aby zacząć odmierzać czas,,--<--,0,0,0,1,,,,,0,2,2,44,,,,,,,,,,,,,,,,,,,,,453.3252881949302,453.3252881949302,left,0,0.33394631394185126,,,,,,5,21,M,N,2023-01-03_13h01.36.745,Flanker,2022.2.4,None,
Przez najbliższe 5 minut proszę kolorować otrzymaną pustą kartkę. Naciśnij spację aby zacząć odmierzać czas,,<<><<,0,0,0,1,,,,,0,3,3,29,,,,,,,,,,,,,,,,,,,,,454.6619751059916,454.6619751059916,right,0,0.7411217739572749,,,,,,5,21,M,N,2023-01-03_13h01.36.745,Flanker,2022.2.4,None,
Przez najbliższe 5 minut proszę kolorować otrzymaną pustą kartkę. Naciśnij spację aby zacząć odmierzać czas,,>><>>,0,0,0,1,,,,,0,4,4,38,,,,,,,,,,,,,,,,,,,,,456.44057200395036,456.44057200395036,left,0,0.5155126610770822,,,,,,5,21,M,N,2023-01-03_13h01.36.745,Flanker,2022.2.4,None,
Przez najbliższe 5 minut proszę kolorować otrzymaną pustą kartkę. Naciśnij spację aby zacząć odmierzać czas,,>>>>>,0,0,0,1,,,,,0,5,5,7,,,,,,,,,,,,,,,,,,,,,457.96147734695114,457.96147734695114,right,0,0.38051800802350044,,,,,,5,21,M,N,2023-01-03_13h01.36.745,Flanker,2022.2.4,None,
Przez najbliższe 5 minut proszę kolorować otrzymaną pustą kartkę. Naciśnij spację aby zacząć odmierzać czas,,<<><<,0,0,0,1,,,,,0,6,6,22,,,,,,,,,,,,,,,,,,,,,459.34561005898286,459.34561005898286,left,0,0.4174490950535983,,,,,,5,21,M,N,2023-01-03_13h01.36.745,Flanker,2022.2.4,None,
Przez najbliższe 5 minut proszę kolorować otrzymaną pustą kartkę. Naciśnij spację aby zacząć odmierzać czas,,-->--,0,0,0,1,,,,,0,7,7,57,,,,,,,,,,,,,,,,,,,,,460.7883985749213,460.7883985749213,right,0,0.418493939912878,,,,,,5,21,M,N,2023-01-03_13h01.36.745,Flanker,2022.2.4,None,
Przez najbliższe 5 minut proszę kolorować otrzymaną pustą kartkę. Naciśnij spację aby zacząć odmierzać czas,,--<--,0,0,0,1,,,,,0,8,8,49,,,,,,,,,,,,,,,,,,,,,462.23063442797866,462.23063442797866,left,0,0.4082647619070485,,,,,,5,21,M,N,2023-01-03_13h01.36.745,Flanker,2022.2.4,None,
Przez najbliższe 5 minut proszę kolorować otrzymaną pustą kartkę. Naciśnij spację aby zacząć odmierzać czas,,<<<<<,0,0,0,1,,,,,0,9,9,14,,,,,,,,,,,,,,,,,,,,,463.65464799897745,463.65464799897745,left,0,0.4213679749518633,,,,,,5,21,M,N,2023-01-03_13h01.36.745,Flanker,2022.2.4,None,
Przez najbliższe 5 minut proszę kolorować otrzymaną pustą kartkę. Naciśnij spację aby zacząć odmierzać czas,,>>>>>,0,0,0,1,,,,,0,10,10,6,,,,,,,,,,,,,,,,,,,,,465.0913179209456,465.0913179209456,right,0,0.38764534797519445,,,,,,5,21,M,N,2023-01-03_13h01.36.745,Flanker,2022.2.4,None,
Przez najbliższe 5 minut proszę kolorować otrzymaną pustą kartkę. Naciśnij spację aby zacząć odmierzać czas,,<<<<<,0,0,0,1,,,,,0,11,11,11,,,,,,,,,,,,,,,,,,,,,466.49627322901506,466.49627322901506,left,0,0.4196063510607928,,,,,,5,21,M,N,2023-01-03_13h01.36.745,Flanker,2022.2.4,None,
Przez najbliższe 5 minut proszę kolorować otrzymaną pustą kartkę. Naciśnij spację aby zacząć odmierzać czas,,--<--,0,0,0,1,,,,,0,12,12,41,,,,,,,,,,,,,,,,,,,,,467.9253913270077,467.9253913270077,left,0,0.5624192169634625,,,,,,5,21,M,N,2023-01-03_13h01.36.745,Flanker,2022.2.4,None,
Przez najbliższe 5 minut proszę kolorować otrzymaną pustą kartkę. Naciśnij spację aby zacząć odmierzać czas,,-->--,0,0,0,1,,,,,0,13,13,50,,,,,,,,,,,,,,,,,,,,,469.49542486597784,469.49542486597784,right,0,0.34717790596187115,,,,,,5,21,M,N,2023-01-03_13h01.36.745,Flanker,2022.2.4,None,
Przez najbliższe 5 minut proszę kolorować otrzymaną pustą kartkę. Naciśnij spację aby zacząć odmierzać czas,,<<<<<,0,0,0,1,,,,,0,14,14,12,,,,,,,,,,,,,,,,,,,,,470.8614609889919,470.8614609889919,left,0,0.3342941759619862,,,,,,5,21,M,N,2023-01-03_13h01.36.745,Flanker,2022.2.4,None,
Przez najbliższe 5 minut proszę kolorować otrzymaną pustą kartkę. Naciśnij spację aby zacząć odmierzać czas,,-->--,0,0,0,1,,,,,0,15,15,53,,,,,,,,,,,,,,,,,,,,,472.20453344797716,472.20453344797716,right,0,0.2916458919644356,,,,,,5,21,M,N,2023-01-03_13h01.36.745,Flanker,2022.2.4,None,
Przez najbliższe 5 minut proszę kolorować otrzymaną pustą kartkę. Naciśnij spację aby zacząć odmierzać czas,,<<><<,0,0,0,1,,,,,0,16,16,24,,,,,,,,,,,,,,,,,,,,,473.5045922419522,473.5045922419522,right,0,0.5150835880776867,,,,,,5,21,M,N,2023-01-03_13h01.36.745,Flanker,2022.2.4,None,
Przez najbliższe 5 minut proszę kolorować otrzymaną pustą kartkę. Naciśnij spację aby zacząć odmierzać czas,,>><>>,0,0,0,1,,,,,0,17,17,39,,,,,,,,,,,,,,,,,,,,,475.02582330594305,475.02582330594305,left,0,0.5257280870573595,,,,,,5,21,M,N,2023-01-03_13h01.36.745,Flanker,2022.2.4,None,
Przez najbliższe 5 minut proszę kolorować otrzymaną pustą kartkę. Naciśnij spację aby zacząć odmierzać czas,,>>>>>,0,0,0,1,,,,,0,18,18,9,,,,,,,,,,,,,,,,,,,,,476.56866866198834,476.56866866198834,right,0,0.33018761000130326,,,,,,5,21,M,N,2023-01-03_13h01.36.745,Flanker,2022.2.4,None,
Przez najbliższe 5 minut proszę kolorować otrzymaną pustą kartkę. Naciśnij spację aby zacząć odmierzać czas,,>>>>>,0,0,0,1,,,,,0,19,19,4,,,,,,,,,,,,,,,,,,,,,477.90962012298405,477.90962012298405,right,0,0.45804336899891496,,,,,,5,21,M,N,2023-01-03_13h01.36.745,Flanker,2022.2.4,None,
Przez najbliższe 5 minut proszę kolorować otrzymaną pustą kartkę. Naciśnij spację aby zacząć odmierzać czas,,>><>>,0,0,0,1,,,,,0,20,20,34,,,,,,,,,,,,,,,,,,,,,479.37758522701915,479.37758522701915,left,0,0.569981251959689,,,,,,5,21,M,N,2023-01-03_13h01.36.745,Flanker,2022.2.4,None,
Przez najbliższe 5 minut proszę kolorować otrzymaną pustą kartkę. Naciśnij spację aby zacząć odmierzać czas,,<<><<,0,0,0,1,,,,,0,21,21,25,,,,,,,,,,,,,,,,,,,,,480.95266335399356,480.95266335399356,right,0,0.5499404789879918,,,,,,5,21,M,N,2023-01-03_13h01.36.745,Flanker,2022.2.4,None,
Przez najbliższe 5 minut proszę kolorować otrzymaną pustą kartkę. Naciśnij spację aby zacząć odmierzać czas,,-->--,0,0,0,1,,,,,0,22,22,54,,,,,,,,,,,,,,,,,,,,,482.5227539279731,482.5227539279731,right,0,0.4607885059667751,,,,,,5,21,M,N,2023-01-03_13h01.36.745,Flanker,2022.2.4,None,
Przez najbliższe 5 minut proszę kolorować otrzymaną pustą kartkę. Naciśnij spację aby zacząć odmierzać czas,,-->--,0,0,0,1,,,,,0,23,23,52,,,,,,,,,,,,,,,,,,,,,483.9911945980275,483.9911945980275,right,0,0.3623039200901985,,,,,,5,21,M,N,2023-01-03_13h01.36.745,Flanker,2022.2.4,None,
Przez najbliższe 5 minut proszę kolorować otrzymaną pustą kartkę. Naciśnij spację aby zacząć odmierzać czas,,--<--,0,0,0,1,,,,,0,24,24,45,,,,,,,,,,,,,,,,,,,,,485.36917806696147,485.36917806696147,left,0,0.31341606995556504,,,,,,5,21,M,N,2023-01-03_13h01.36.745,Flanker,2022.2.4,None,
Przez najbliższe 5 minut proszę kolorować otrzymaną pustą kartkę. Naciśnij spację aby zacząć odmierzać czas,,>><>>,0,0,0,1,,,,,0,25,25,31,,,,,,,,,,,,,,,,,,,,,486.6909196699271,486.6909196699271,left,0,0.46340498398058116,,,,,,5,21,M,N,2023-01-03_13h01.36.745,Flanker,2022.2.4,None,
Przez najbliższe 5 minut proszę kolorować otrzymaną pustą kartkę. Naciśnij spację aby zacząć odmierzać czas,,<<><<,0,0,0,1,,,,,0,26,26,27,,,,,,,,,,,,,,,,,,,,,488.1691022729501,488.1691022729501,right,0,0.4302962409565225,,,,,,5,21,M,N,2023-01-03_13h01.36.745,Flanker,2022.2.4,None,
Przez najbliższe 5 minut proszę kolorować otrzymaną pustą kartkę. Naciśnij spację aby zacząć odmierzać czas,,>><>>,0,0,0,1,,,,,0,27,27,36,,,,,,,,,,,,,,,,,,,,,489.6136577699799,489.6136577699799,left,0,0.64577217400074,,,,,,5,21,M,N,2023-01-03_13h01.36.745,Flanker,2022.2.4,None,
Przez najbliższe 5 minut proszę kolorować otrzymaną pustą kartkę. Naciśnij spację aby zacząć odmierzać czas,,<<><<,0,0,0,1,,,,,0,28,28,28,,,,,,,,,,,,,,,,,,,,,491.2742827780312,491.2742827780312,right,0,0.6591495970496908,,,,,,5,21,M,N,2023-01-03_13h01.36.745,Flanker,2022.2.4,None,
Przez najbliższe 5 minut proszę kolorować otrzymaną pustą kartkę. Naciśnij spację aby zacząć odmierzać czas,,<<<<<,0,0,0,1,,,,,0,29,29,10,,,,,,,,,,,,,,,,,,,,,492.9478969479678,492.9478969479678,left,0,0.29738258698489517,,,,,,5,21,M,N,2023-01-03_13h01.36.745,Flanker,2022.2.4,None,
Przez najbliższe 5 minut proszę kolorować otrzymaną pustą kartkę. Naciśnij spację aby zacząć odmierzać czas,,--<--,0,0,0,1,,,,,0,30,30,48,,,,,,,,,,,,,,,,,,,,,494.25377052498516,494.25377052498516,left,0,0.46158407104667276,,,,,,5,21,M,N,2023-01-03_13h01.36.745,Flanker,2022.2.4,None,
Przez najbliższe 5 minut proszę kolorować otrzymaną pustą kartkę. Naciśnij spację aby zacząć odmierzać czas,,<<><<,0,0,0,1,,,,,0,31,31,20,,,,,,,,,,,,,,,,,,,,,495.72503190592397,495.72503190592397,right,0,0.5332177809905261,,,,,,5,21,M,N,2023-01-03_13h01.36.745,Flanker,2022.2.4,None,
Przez najbliższe 5 minut proszę kolorować otrzymaną pustą kartkę. Naciśnij spację aby zacząć odmierzać czas,,-->--,0,0,0,1,,,,,0,32,32,59,,,,,,,,,,,,,,,,,,,,,497.2670884509571,497.2670884509571,right,0,0.37212444900069386,,,,,,5,21,M,N,2023-01-03_13h01.36.745,Flanker,2022.2.4,None,
Przez najbliższe 5 minut proszę kolorować otrzymaną pustą kartkę. Naciśnij spację aby zacząć odmierzać czas,,<<><<,0,0,0,1,,,,,0,33,33,21,,,,,,,,,,,,,,,,,,,,,498.6497894669883,498.6497894669883,right,0,0.521409820066765,,,,,,5,21,M,N,2023-01-03_13h01.36.745,Flanker,2022.2.4,None,
Przez najbliższe 5 minut proszę kolorować otrzymaną pustą kartkę. Naciśnij spację aby zacząć odmierzać czas,,-->--,0,0,0,1,,,,,0,34,34,56,,,,,,,,,,,,,,,,,,,,,500.1830208619358,500.1830208619358,right,0,0.4422985720448196,,,,,,5,21,M,N,2023-01-03_13h01.36.745,Flanker,2022.2.4,None,
Przez najbliższe 5 minut proszę kolorować otrzymaną pustą kartkę. Naciśnij spację aby zacząć odmierzać czas,,>><>>,0,0,0,1,,,,,0,35,35,32,,,,,,,,,,,,,,,,,,,,,501.6307749239495,501.6307749239495,left,0,0.39740769600030035,,,,,,5,21,M,N,2023-01-03_13h01.36.745,Flanker,2022.2.4,None,
Przez najbliższe 5 minut proszę kolorować otrzymaną pustą kartkę. Naciśnij spację aby zacząć odmierzać czas,,>><>>,0,0,0,1,,,,,0,36,36,33,,,,,,,,,,,,,,,,,,,,,503.0409227350028,503.0409227350028,right,0,0.34813969500828534,,,,,,5,21,M,N,2023-01-03_13h01.36.745,Flanker,2022.2.4,None,
Przez najbliższe 5 minut proszę kolorować otrzymaną pustą kartkę. Naciśnij spację aby zacząć odmierzać czas,,--<--,0,0,0,1,,,,,0,37,37,43,,,,,,,,,,,,,,,,,,,,,504.422839783947,504.422839783947,left,0,0.3962526220129803,,,,,,5,21,M,N,2023-01-03_13h01.36.745,Flanker,2022.2.4,None,
Przez najbliższe 5 minut proszę kolorować otrzymaną pustą kartkę. Naciśnij spację aby zacząć odmierzać czas,,>>>>>,0,0,0,1,,,,,0,38,38,3,,,,,,,,,,,,,,,,,,,,,505.8168971319683,505.8168971319683,right,0,0.4540830400073901,,,,,,5,21,M,N,2023-01-03_13h01.36.745,Flanker,2022.2.4,None,
Przez najbliższe 5 minut proszę kolorować otrzymaną pustą kartkę. Naciśnij spację aby zacząć odmierzać czas,,--<--,0,0,0,1,,,,,0,39,39,47,,,,,,,,,,,,,,,,,,,,,507.289183684974,507.289183684974,left,0,0.41799209103919566,,,,,,5,21,M,N,2023-01-03_13h01.36.745,Flanker,2022.2.4,None,
Przez najbliższe 5 minut proszę kolorować otrzymaną pustą kartkę. Naciśnij spację aby zacząć odmierzać czas,,-->--,0,0,0,1,,,,,0,40,40,51,,,,,,,,,,,,,,,,,,,,,508.7300168259535,508.7300168259535,right,0,0.38104511704295874,,,,,,5,21,M,N,2023-01-03_13h01.36.745,Flanker,2022.2.4,None,
Przez najbliższe 5 minut proszę kolorować otrzymaną pustą kartkę. Naciśnij spację aby zacząć odmierzać czas,,<<<<<,0,0,0,1,,,,,0,41,41,15,,,,,,,,,,,,,,,,,,,,,510.12637175899,510.12637175899,left,0,0.3276600759709254,,,,,,5,21,M,N,2023-01-03_13h01.36.745,Flanker,2022.2.4,None,
Przez najbliższe 5 minut proszę kolorować otrzymaną pustą kartkę. Naciśnij spację aby zacząć odmierzać czas,,<<<<<,0,0,0,1,,,,,0,42,42,19,,,,,,,,,,,,,,,,,,,,,511.4618515300099,511.4618515300099,left,0,0.45521642197854817,,,,,,5,21,M,N,2023-01-03_13h01.36.745,Flanker,2022.2.4,None,
Przez najbliższe 5 minut proszę kolorować otrzymaną pustą kartkę. Naciśnij spację aby zacząć odmierzać czas,,-->--,0,0,0,1,,,,,0,43,43,58,,,,,,,,,,,,,,,,,,,,,512.9292287660064,512.9292287660064,right,0,0.48263394995592535,,,,,,5,21,M,N,2023-01-03_13h01.36.745,Flanker,2022.2.4,None,
Przez najbliższe 5 minut proszę kolorować otrzymaną pustą kartkę. Naciśnij spację aby zacząć odmierzać czas,,-->--,0,0,0,1,,,,,0,44,44,55,,,,,,,,,,,,,,,,,,,,,514.4230647169752,514.4230647169752,right,0,0.3827648221049458,,,,,,5,21,M,N,2023-01-03_13h01.36.745,Flanker,2022.2.4,None,
Przez najbliższe 5 minut proszę kolorować otrzymaną pustą kartkę. Naciśnij spację aby zacząć odmierzać czas,,--<--,0,0,0,1,,,,,0,45,45,40,,,,,,,,,,,,,,,,,,,,,515.80784923397,515.80784923397,left,0,0.2982563469558954,,,,,,5,21,M,N,2023-01-03_13h01.36.745,Flanker,2022.2.4,None,
Przez najbliższe 5 minut proszę kolorować otrzymaną pustą kartkę. Naciśnij spację aby zacząć odmierzać czas,,<<<<<,0,0,0,1,,,,,0,46,46,16,,,,,,,,,,,,,,,,,,,,,517.1124041579897,517.1124041579897,left,0,0.4094171170145273,,,,,,5,21,M,N,2023-01-03_13h01.36.745,Flanker,2022.2.4,None,
Przez najbliższe 5 minut proszę kolorować otrzymaną pustą kartkę. Naciśnij spację aby zacząć odmierzać czas,,<<><<,0,0,0,1,,,,,0,47,47,26,,,,,,,,,,,,,,,,,,,,,518.5302542829886,518.5302542829886,right,0,0.4257768039824441,,,,,,5,21,M,N,2023-01-03_13h01.36.745,Flanker,2022.2.4,None,
Przez najbliższe 5 minut proszę kolorować otrzymaną pustą kartkę. Naciśnij spację aby zacząć odmierzać czas,,>><>>,0,0,0,1,,,,,0,48,48,37,,,,,,,,,,,,,,,,,,,,,519.9889097679406,519.9889097679406,right,0,0.3969444539397955,,,,,,5,21,M,N,2023-01-03_13h01.36.745,Flanker,2022.2.4,None,
Przez najbliższe 5 minut proszę kolorować otrzymaną pustą kartkę. Naciśnij spację aby zacząć odmierzać czas,,>>>>>,0,0,0,1,,,,,0,49,49,8,,,,,,,,,,,,,,,,,,,,,521.4001345109427,521.4001345109427,right,0,0.445406301994808,,,,,,5,21,M,N,2023-01-03_13h01.36.745,Flanker,2022.2.4,None,
Przez najbliższe 5 minut proszę kolorować otrzymaną pustą kartkę. Naciśnij spację aby zacząć odmierzać czas,,--<--,0,0,0,1,,,,,0,50,50,46,,,,,,,,,,,,,,,,,,,,,522.8574348969851,522.8574348969851,left,0,0.3874144440051168,,,,,,5,21,M,N,2023-01-03_13h01.36.745,Flanker,2022.2.4,None,
Przez najbliższe 5 minut proszę kolorować otrzymaną pustą kartkę. Naciśnij spację aby zacząć odmierzać czas,,<<<<<,0,0,0,1,,,,,0,51,51,17,,,,,,,,,,,,,,,,,,,,,524.2663005120121,524.2663005120121,left,0,0.48736342205666006,,,,,,5,21,M,N,2023-01-03_13h01.36.745,Flanker,2022.2.4,None,
Przez najbliższe 5 minut proszę kolorować otrzymaną pustą kartkę. Naciśnij spację aby zacząć odmierzać czas,,<<<<<,0,0,0,1,,,,,0,52,52,18,,,,,,,,,,,,,,,,,,,,,525.7581109430175,525.7581109430175,left,0,0.3805398759432137,,,,,,5,21,M,N,2023-01-03_13h01.36.745,Flanker,2022.2.4,None,
Przez najbliższe 5 minut proszę kolorować otrzymaną pustą kartkę. Naciśnij spację aby zacząć odmierzać czas,,>>>>>,0,0,0,1,,,,,0,53,53,2,,,,,,,,,,,,,,,,,,,,,527.1426742470358,527.1426742470358,right,0,0.43302429700270295,,,,,,5,21,M,N,2023-01-03_13h01.36.745,Flanker,2022.2.4,None,
Przez najbliższe 5 minut proszę kolorować otrzymaną pustą kartkę. Naciśnij spację aby zacząć odmierzać czas,,>><>>,0,0,0,1,,,,,0,54,54,30,,,,,,,,,,,,,,,,,,,,,528.5911004139343,528.5911004139343,left,0,0.5966105840634555,,,,,,5,21,M,N,2023-01-03_13h01.36.745,Flanker,2022.2.4,None,
Przez najbliższe 5 minut proszę kolorować otrzymaną pustą kartkę. Naciśnij spację aby zacząć odmierzać czas,,<<><<,0,0,0,1,,,,,0,55,55,23,,,,,,,,,,,,,,,,,,,,,530.2055182260228,530.2055182260228,right,0,0.5201647270005196,,,,,,5,21,M,N,2023-01-03_13h01.36.745,Flanker,2022.2.4,None,
Przez najbliższe 5 minut proszę kolorować otrzymaną pustą kartkę. Naciśnij spację aby zacząć odmierzać czas,,>><>>,0,0,0,1,,,,,0,56,56,35,,,,,,,,,,,,,,,,,,,,,531.7333006890258,531.7333006890258,left,0,0.5242674689507112,,,,,,5,21,M,N,2023-01-03_13h01.36.745,Flanker,2022.2.4,None,
Przez najbliższe 5 minut proszę kolorować otrzymaną pustą kartkę. Naciśnij spację aby zacząć odmierzać czas,,--<--,0,0,0,1,,,,,0,57,57,42,,,,,,,,,,,,,,,,,,,,,533.2662277339259,533.2662277339259,left,0,0.4904156250413507,,,,,,5,21,M,N,2023-01-03_13h01.36.745,Flanker,2022.2.4,None,
Przez najbliższe 5 minut proszę kolorować otrzymaną pustą kartkę. Naciśnij spację aby zacząć odmierzać czas,,>>>>>,0,0,0,1,,,,,0,58,58,1,,,,,,,,,,,,,,,,,,,,,534.763358511962,534.763358511962,right,0,0.4071888210019097,,,,,,5,21,M,N,2023-01-03_13h01.36.745,Flanker,2022.2.4,None,
Przez najbliższe 5 minut proszę kolorować otrzymaną pustą kartkę. Naciśnij spację aby zacząć odmierzać czas,,<<<<<,0,0,0,1,,,,,0,59,59,13,,,,,,,,,,,,,,,,,,,,,536.174358582939,536.174358582939,left,0,0.2732744860695675,,,,,,5,21,M,N,2023-01-03_13h01.36.745,Flanker,2022.2.4,None,
Przez najbliższe 5 minut proszę kolorować otrzymaną pustą kartkę. Naciśnij spację aby zacząć odmierzać czas,,,0,0,0,1,,,,,,,,,,,,,,,,,,,,,,,,,,,,,,,,,,,,,,,5,21,M,N,2023-01-03_13h01.36.745,Flanker,2022.2.4,None,
Przez najbliższe 5 minut proszę kolorować otrzymaną kolorwankę z mandalą. Naciśnij spację aby zacząć odmierzać czas,--<--,,0,1,1,0,0,0,0,4,,,,,,,,,536.4919307830278,537.4630283910083,space,10.420498166931793,547.901437419001,847.9123653229326,849.8932070669252,space,9.687932998989709,859.613811883959,868.5963276480325,868.5963276480325,left,0,0.399694707011804,,,,,,,,,,,,5,21,M,N,2023-01-03_13h01.36.745,Flanker,2022.2.4,None,
Przez najbliższe 5 minut proszę kolorować otrzymaną kolorwankę z mandalą. Naciśnij spację aby zacząć odmierzać czas,>><>>,,0,1,1,0,0,1,1,3,,,,,,,,,,,,,,,,,,,870.0043286859291,870.0043286859291,left,0,0.7534421290038154,,,,,,,,,,,,5,21,M,N,2023-01-03_13h01.36.745,Flanker,2022.2.4,None,
Przez najbliższe 5 minut proszę kolorować otrzymaną kolorwankę z mandalą. Naciśnij spację aby zacząć odmierzać czas,<<><<,,0,1,1,0,0,2,2,2,,,,,,,,,,,,,,,,,,,871.7607720239321,871.7607720239321,right,0,0.5108431940898299,,,,,,,,,,,,5,21,M,N,2023-01-03_13h01.36.745,Flanker,2022.2.4,None,
Przez najbliższe 5 minut proszę kolorować otrzymaną kolorwankę z mandalą. Naciśnij spację aby zacząć odmierzać czas,>>>>>,,0,1,1,0,0,3,3,1,,,,,,,,,,,,,,,,,,,873.2912566999439,873.2912566999439,right,0,0.39440710202325135,,,,,,,,,,,,5,21,M,N,2023-01-03_13h01.36.745,Flanker,2022.2.4,None,
Przez najbliższe 5 minut proszę kolorować otrzymaną kolorwankę z mandalą. Naciśnij spację aby zacząć odmierzać czas,<<<<<,,0,1,1,0,0,4,4,0,,,,,,,,,,,,,,,,,,,874.7020135599887,874.7020135599887,left,0,0.30681431596167386,,,,,,,,,,,,5,21,M,N,2023-01-03_13h01.36.745,Flanker,2022.2.4,None,
Przez najbliższe 5 minut proszę kolorować otrzymaną kolorwankę z mandalą. Naciśnij spację aby zacząć odmierzać czas,-->--,,0,1,1,0,0,5,5,5,,,,,,,,,,,,,,,,,,,876.0279241779353,876.0279241779353,right,0,0.26783209096174687,,,,,,,,,,,,5,21,M,N,2023-01-03_13h01.36.745,Flanker,2022.2.4,None,
Przez najbliższe 5 minut proszę kolorować otrzymaną kolorwankę z mandalą. Naciśnij spację aby zacząć odmierzać czas,,<<<<<,0,1,1,0,,,,,0,0,0,11,,,,,,,,,,,,,,,,,,,,877.2991369009251,885.3128633189481,885.3128633189481,left,0,0.5313583430834115,884.3160701119341,,,,,5,21,M,N,2023-01-03_13h01.36.745,Flanker,2022.2.4,None,
Przez najbliższe 5 minut proszę kolorować otrzymaną kolorwankę z mandalą. Naciśnij spację aby zacząć odmierzać czas,,>>>>>,0,1,1,0,,,,,0,1,1,8,,,,,,,,,,,,,,,,,,,,,886.8674119369825,886.8674119369825,right,0,0.41918795404490083,,,,,,5,21,M,N,2023-01-03_13h01.36.745,Flanker,2022.2.4,None,
Przez najbliższe 5 minut proszę kolorować otrzymaną kolorwankę z mandalą. Naciśnij spację aby zacząć odmierzać czas,,--<--,0,1,1,0,,,,,0,2,2,47,,,,,,,,,,,,,,,,,,,,,888.2985064500244,888.2985064500244,left,0,0.34187349292915314,,,,,,5,21,M,N,2023-01-03_13h01.36.745,Flanker,2022.2.4,None,
Przez najbliższe 5 minut proszę kolorować otrzymaną kolorwankę z mandalą. Naciśnij spację aby zacząć odmierzać czas,,<<<<<,0,1,1,0,,,,,0,3,3,15,,,,,,,,,,,,,,,,,,,,,889.6442292969441,889.6442292969441,left,0,0.36749046202749014,,,,,,5,21,M,N,2023-01-03_13h01.36.745,Flanker,2022.2.4,None,
Przez najbliższe 5 minut proszę kolorować otrzymaną kolorwankę z mandalą. Naciśnij spację aby zacząć odmierzać czas,,--<--,0,1,1,0,,,,,0,4,4,49,,,,,,,,,,,,,,,,,,,,,891.0136727199424,891.0136727199424,left,0,0.49176412099041045,,,,,,5,21,M,N,2023-01-03_13h01.36.745,Flanker,2022.2.4,None,
Przez najbliższe 5 minut proszę kolorować otrzymaną kolorwankę z mandalą. Naciśnij spację aby zacząć odmierzać czas,,<<<<<,0,1,1,0,,,,,0,5,5,19,,,,,,,,,,,,,,,,,,,,,892.5239338020328,892.5239338020328,left,0,0.35595453006681055,,,,,,5,21,M,N,2023-01-03_13h01.36.745,Flanker,2022.2.4,None,
Przez najbliższe 5 minut proszę kolorować otrzymaną kolorwankę z mandalą. Naciśnij spację aby zacząć odmierzać czas,,--<--,0,1,1,0,,,,,0,6,6,44,,,,,,,,,,,,,,,,,,,,,893.888687720988,893.888687720988,left,0,0.36464002600405365,,,,,,5,21,M,N,2023-01-03_13h01.36.745,Flanker,2022.2.4,None,
Przez najbliższe 5 minut proszę kolorować otrzymaną kolorwankę z mandalą. Naciśnij spację aby zacząć odmierzać czas,,<<><<,0,1,1,0,,,,,0,7,7,25,,,,,,,,,,,,,,,,,,,,,895.2574133640155,895.2574133640155,right,0,0.645951398066245,,,,,,5,21,M,N,2023-01-03_13h01.36.745,Flanker,2022.2.4,None,
Przez najbliższe 5 minut proszę kolorować otrzymaną kolorwankę z mandalą. Naciśnij spację aby zacząć odmierzać czas,,<<><<,0,1,1,0,,,,,0,8,8,21,,,,,,,,,,,,,,,,,,,,,896.9125159010291,896.9125159010291,right,0,0.4886630140244961,,,,,,5,21,M,N,2023-01-03_13h01.36.745,Flanker,2022.2.4,None,
Przez najbliższe 5 minut proszę kolorować otrzymaną kolorwankę z mandalą. Naciśnij spację aby zacząć odmierzać czas,,>><>>,0,1,1,0,,,,,0,9,9,36,,,,,,,,,,,,,,,,,,,,,898.4126175789861,898.4126175789861,right,0,0.3645361140370369,,,,,,5,21,M,N,2023-01-03_13h01.36.745,Flanker,2022.2.4,None,
Przez najbliższe 5 minut proszę kolorować otrzymaną kolorwankę z mandalą. Naciśnij spację aby zacząć odmierzać czas,,>><>>,0,1,1,0,,,,,0,10,10,35,,,,,,,,,,,,,,,,,,,,,899.7796259429306,899.7796259429306,left,0,0.6866560480557382,,,,,,5,21,M,N,2023-01-03_13h01.36.745,Flanker,2022.2.4,None,
Przez najbliższe 5 minut proszę kolorować otrzymaną kolorwankę z mandalą. Naciśnij spację aby zacząć odmierzać czas,,-->--,0,1,1,0,,,,,0,11,11,53,,,,,,,,,,,,,,,,,,,,,901.4737208980368,901.4737208980368,right,0,0.394442068063654,,,,,,5,21,M,N,2023-01-03_13h01.36.745,Flanker,2022.2.4,None,
Przez najbliższe 5 minut proszę kolorować otrzymaną kolorwankę z mandalą. Naciśnij spację aby zacząć odmierzać czas,,>>>>>,0,1,1,0,,,,,0,12,12,7,,,,,,,,,,,,,,,,,,,,,902.8778133359738,902.8778133359738,right,0,0.5353920300258324,,,,,,5,21,M,N,2023-01-03_13h01.36.745,Flanker,2022.2.4,None,
Przez najbliższe 5 minut proszę kolorować otrzymaną kolorwankę z mandalą. Naciśnij spację aby zacząć odmierzać czas,,-->--,0,1,1,0,,,,,0,13,13,58,,,,,,,,,,,,,,,,,,,,,904.4221932709916,904.4221932709916,right,0,0.37897436995990574,,,,,,5,21,M,N,2023-01-03_13h01.36.745,Flanker,2022.2.4,None,
Przez najbliższe 5 minut proszę kolorować otrzymaną kolorwankę z mandalą. Naciśnij spację aby zacząć odmierzać czas,,<<<<<,0,1,1,0,,,,,0,14,14,14,,,,,,,,,,,,,,,,,,,,,905.8065150739858,905.8065150739858,left,0,0.3575344029814005,,,,,,5,21,M,N,2023-01-03_13h01.36.745,Flanker,2022.2.4,None,
Przez najbliższe 5 minut proszę kolorować otrzymaną kolorwankę z mandalą. Naciśnij spację aby zacząć odmierzać czas,,<<><<,0,1,1,0,,,,,0,15,15,20,,,,,,,,,,,,,,,,,,,,,907.1792494109832,907.1792494109832,right,0,0.6327311850618571,,,,,,5,21,M,N,2023-01-03_13h01.36.745,Flanker,2022.2.4,None,
Przez najbliższe 5 minut proszę kolorować otrzymaną kolorwankę z mandalą. Naciśnij spację aby zacząć odmierzać czas,,>>>>>,0,1,1,0,,,,,0,16,16,9,,,,,,,,,,,,,,,,,,,,,908.8202716659289,908.8202716659289,right,0,0.40584258595481515,,,,,,5,21,M,N,2023-01-03_13h01.36.745,Flanker,2022.2.4,None,
Przez najbliższe 5 minut proszę kolorować otrzymaną kolorwankę z mandalą. Naciśnij spację aby zacząć odmierzać czas,,--<--,0,1,1,0,,,,,0,17,17,40,,,,,,,,,,,,,,,,,,,,,910.2364006829448,910.2364006829448,left,0,0.4236627649515867,,,,,,5,21,M,N,2023-01-03_13h01.36.745,Flanker,2022.2.4,None,
Przez najbliższe 5 minut proszę kolorować otrzymaną kolorwankę z mandalą. Naciśnij spację aby zacząć odmierzać czas,,<<><<,0,1,1,0,,,,,0,18,18,28,,,,,,,,,,,,,,,,,,,,,911.6776853839401,911.6776853839401,right,0,0.49328376597259194,,,,,,5,21,M,N,2023-01-03_13h01.36.745,Flanker,2022.2.4,None,
Przez najbliższe 5 minut proszę kolorować otrzymaną kolorwankę z mandalą. Naciśnij spację aby zacząć odmierzać czas,,>>>>>,0,1,1,0,,,,,0,19,19,4,,,,,,,,,,,,,,,,,,,,,913.175922918017,913.175922918017,right,0,0.41890442196745425,,,,,,5,21,M,N,2023-01-03_13h01.36.745,Flanker,2022.2.4,None,
Przez najbliższe 5 minut proszę kolorować otrzymaną kolorwankę z mandalą. Naciśnij spację aby zacząć odmierzać czas,,>><>>,0,1,1,0,,,,,0,20,20,37,,,,,,,,,,,,,,,,,,,,,914.6082024730276,914.6082024730276,left,0,0.5566866720328107,,,,,,5,21,M,N,2023-01-03_13h01.36.745,Flanker,2022.2.4,None,
Przez najbliższe 5 minut proszę kolorować otrzymaną kolorwankę z mandalą. Naciśnij spację aby zacząć odmierzać czas,,-->--,0,1,1,0,,,,,0,21,21,50,,,,,,,,,,,,,,,,,,,,,916.1836684519658,916.1836684519658,right,0,0.31933738698717207,,,,,,5,21,M,N,2023-01-03_13h01.36.745,Flanker,2022.2.4,None,
Przez najbliższe 5 minut proszę kolorować otrzymaną kolorwankę z mandalą. Naciśnij spację aby zacząć odmierzać czas,,>><>>,0,1,1,0,,,,,0,22,22,34,,,,,,,,,,,,,,,,,,,,,917.5189216040308,917.5189216040308,left,0,0.5799755690386519,,,,,,5,21,M,N,2023-01-03_13h01.36.745,Flanker,2022.2.4,None,
Przez najbliższe 5 minut proszę kolorować otrzymaną kolorwankę z mandalą. Naciśnij spację aby zacząć odmierzać czas,,-->--,0,1,1,0,,,,,0,23,23,56,,,,,,,,,,,,,,,,,,,,,919.1192476570141,919.1192476570141,right,0,0.31264122598804533,,,,,,5,21,M,N,2023-01-03_13h01.36.745,Flanker,2022.2.4,None,
Przez najbliższe 5 minut proszę kolorować otrzymaną kolorwankę z mandalą. Naciśnij spację aby zacząć odmierzać czas,,-->--,0,1,1,0,,,,,0,24,24,57,,,,,,,,,,,,,,,,,,,,,920.4503258619225,920.4503258619225,right,0,0.5315443390281871,,,,,,5,21,M,N,2023-01-03_13h01.36.745,Flanker,2022.2.4,None,
Przez najbliższe 5 minut proszę kolorować otrzymaną kolorwankę z mandalą. Naciśnij spację aby zacząć odmierzać czas,,>>>>> ,0,1,1,0,,,,,0,25,25,5,,,,,,,,,,,,,,,,,,,,,921.9896339889383,921.9896339889383,right,0,0.3391991249518469,,,,,,5,21,M,N,2023-01-03_13h01.36.745,Flanker,2022.2.4,None,
Przez najbliższe 5 minut proszę kolorować otrzymaną kolorwankę z mandalą. Naciśnij spację aby zacząć odmierzać czas,,--<--,0,1,1,0,,,,,0,26,26,43,,,,,,,,,,,,,,,,,,,,,923.3343533599982,923.3343533599982,left,0,0.42133655096404254,,,,,,5,21,M,N,2023-01-03_13h01.36.745,Flanker,2022.2.4,None,
Przez najbliższe 5 minut proszę kolorować otrzymaną kolorwankę z mandalą. Naciśnij spację aby zacząć odmierzać czas,,<<><<,0,1,1,0,,,,,0,27,27,26,,,,,,,,,,,,,,,,,,,,,924.7668754429324,924.7668754429324,right,0,0.4709150579292327,,,,,,5,21,M,N,2023-01-03_13h01.36.745,Flanker,2022.2.4,None,
Przez najbliższe 5 minut proszę kolorować otrzymaną kolorwankę z mandalą. Naciśnij spację aby zacząć odmierzać czas,,<<<<<,0,1,1,0,,,,,0,28,28,16,,,,,,,,,,,,,,,,,,,,,926.2455615910003,926.2455615910003,left,0,0.3941657079849392,,,,,,5,21,M,N,2023-01-03_13h01.36.745,Flanker,2022.2.4,None,
Przez najbliższe 5 minut proszę kolorować otrzymaną kolorwankę z mandalą. Naciśnij spację aby zacząć odmierzać czas,,<<><<,0,1,1,0,,,,,0,29,29,22,,,,,,,,,,,,,,,,,,,,,927.6445989939384,927.6445989939384,right,0,0.6460991249186918,,,,,,5,21,M,N,2023-01-03_13h01.36.745,Flanker,2022.2.4,None,
Przez najbliższe 5 minut proszę kolorować otrzymaną kolorwankę z mandalą. Naciśnij spację aby zacząć odmierzać czas,,--<--,0,1,1,0,,,,,0,30,30,45,,,,,,,,,,,,,,,,,,,,,929.2942616619403,929.2942616619403,left,0,0.3163952350150794,,,,,,5,21,M,N,2023-01-03_13h01.36.745,Flanker,2022.2.4,None,
Przez najbliższe 5 minut proszę kolorować otrzymaną kolorwankę z mandalą. Naciśnij spację aby zacząć odmierzać czas,,<<><<,0,1,1,0,,,,,0,31,31,29,,,,,,,,,,,,,,,,,,,,,930.6276539999526,930.6276539999526,right,0,0.4970176200149581,,,,,,5,21,M,N,2023-01-03_13h01.36.745,Flanker,2022.2.4,None,
Przez najbliższe 5 minut proszę kolorować otrzymaną kolorwankę z mandalą. Naciśnij spację aby zacząć odmierzać czas,,>><>>,0,1,1,0,,,,,0,32,32,32,,,,,,,,,,,,,,,,,,,,,932.1334726399509,932.1334726399509,left,0,0.6281938309548423,,,,,,5,21,M,N,2023-01-03_13h01.36.745,Flanker,2022.2.4,None,
Przez najbliższe 5 minut proszę kolorować otrzymaną kolorwankę z mandalą. Naciśnij spację aby zacząć odmierzać czas,,<<<<<,0,1,1,0,,,,,0,33,33,13,,,,,,,,,,,,,,,,,,,,,933.7665600569453,933.7665600569453,left,0,0.463949125027284,,,,,,5,21,M,N,2023-01-03_13h01.36.745,Flanker,2022.2.4,None,
Przez najbliższe 5 minut proszę kolorować otrzymaną kolorwankę z mandalą. Naciśnij spację aby zacząć odmierzać czas,,<<<<<,0,1,1,0,,,,,0,34,34,17,,,,,,,,,,,,,,,,,,,,,935.2403293539537,935.2403293539537,left,0,0.31425392103847116,,,,,,5,21,M,N,2023-01-03_13h01.36.745,Flanker,2022.2.4,None,
Przez najbliższe 5 minut proszę kolorować otrzymaną kolorwankę z mandalą. Naciśnij spację aby zacząć odmierzać czas,,<<<<<,0,1,1,0,,,,,0,35,35,12,,,,,,,,,,,,,,,,,,,,,936.5695654519368,936.5695654519368,left,0,0.2849641530774534,,,,,,5,21,M,N,2023-01-03_13h01.36.745,Flanker,2022.2.4,None,
Przez najbliższe 5 minut proszę kolorować otrzymaną kolorwankę z mandalą. Naciśnij spację aby zacząć odmierzać czas,,<<<<<,0,1,1,0,,,,,0,36,36,18,,,,,,,,,,,,,,,,,,,,,937.8615767150186,937.8615767150186,left,0,0.36185959295835346,,,,,,5,21,M,N,2023-01-03_13h01.36.745,Flanker,2022.2.4,None,
Przez najbliższe 5 minut proszę kolorować otrzymaną kolorwankę z mandalą. Naciśnij spację aby zacząć odmierzać czas,,--<--,0,1,1,0,,,,,0,37,37,46,,,,,,,,,,,,,,,,,,,,,939.2284212389495,939.2284212389495,left,0,0.4139253339963034,,,,,,5,21,M,N,2023-01-03_13h01.36.745,Flanker,2022.2.4,None,
Przez najbliższe 5 minut proszę kolorować otrzymaną kolorwankę z mandalą. Naciśnij spację aby zacząć odmierzać czas,,>>>>>,0,1,1,0,,,,,0,38,38,3,,,,,,,,,,,,,,,,,,,,,940.6535148440162,940.6535148440162,right,0,0.30090516910422593,,,,,,5,21,M,N,2023-01-03_13h01.36.745,Flanker,2022.2.4,None,
Przez najbliższe 5 minut proszę kolorować otrzymaną kolorwankę z mandalą. Naciśnij spację aby zacząć odmierzać czas,,-->--,0,1,1,0,,,,,0,39,39,52,,,,,,,,,,,,,,,,,,,,,941.969941013027,941.969941013027,right,0,0.34935104893520474,,,,,,5,21,M,N,2023-01-03_13h01.36.745,Flanker,2022.2.4,None,
Przez najbliższe 5 minut proszę kolorować otrzymaną kolorwankę z mandalą. Naciśnij spację aby zacząć odmierzać czas,,>><>>,0,1,1,0,,,,,0,40,40,31,,,,,,,,,,,,,,,,,,,,,943.3272568249376,943.3272568249376,left,0,0.5511620930628851,,,,,,5,21,M,N,2023-01-03_13h01.36.745,Flanker,2022.2.4,None,
Przez najbliższe 5 minut proszę kolorować otrzymaną kolorwankę z mandalą. Naciśnij spację aby zacząć odmierzać czas,,--<--,0,1,1,0,,,,,0,41,41,48,,,,,,,,,,,,,,,,,,,,,944.8915236439789,944.8915236439789,left,0,0.6148803570540622,,,,,,5,21,M,N,2023-01-03_13h01.36.745,Flanker,2022.2.4,None,
Przez najbliższe 5 minut proszę kolorować otrzymaną kolorwankę z mandalą. Naciśnij spację aby zacząć odmierzać czas,,>>>>>,0,1,1,0,,,,,0,42,42,0,,,,,,,,,,,,,,,,,,,,,946.5174423289718,946.5174423289718,right,0,0.8618899979628623,,,,,,5,21,M,N,2023-01-03_13h01.36.745,Flanker,2022.2.4,None,
Przez najbliższe 5 minut proszę kolorować otrzymaną kolorwankę z mandalą. Naciśnij spację aby zacząć odmierzać czas,,<<><<,0,1,1,0,,,,,0,43,43,23,,,,,,,,,,,,,,,,,,,,,948.391003030003,948.391003030003,right,0,0.5013605309650302,,,,,,5,21,M,N,2023-01-03_13h01.36.745,Flanker,2022.2.4,None,
Przez najbliższe 5 minut proszę kolorować otrzymaną kolorwankę z mandalą. Naciśnij spację aby zacząć odmierzać czas,,-->--,0,1,1,0,,,,,0,44,44,54,,,,,,,,,,,,,,,,,,,,,949.896277767024,949.896277767024,right,0,0.2999918860150501,,,,,,5,21,M,N,2023-01-03_13h01.36.745,Flanker,2022.2.4,None,
Przez najbliższe 5 minut proszę kolorować otrzymaną kolorwankę z mandalą. Naciśnij spację aby zacząć odmierzać czas,,-->--,0,1,1,0,,,,,0,45,45,51,,,,,,,,,,,,,,,,,,,,,951.2138965060003,951.2138965060003,right,0,0.2903215299593285,,,,,,5,21,M,N,2023-01-03_13h01.36.745,Flanker,2022.2.4,None,
Przez najbliższe 5 minut proszę kolorować otrzymaną kolorwankę z mandalą. Naciśnij spację aby zacząć odmierzać czas,,>><>>,0,1,1,0,,,,,0,46,46,30,,,,,,,,,,,,,,,,,,,,,952.5113006749889,952.5113006749889,left,0,0.6198987920070067,,,,,,5,21,M,N,2023-01-03_13h01.36.745,Flanker,2022.2.4,None,
Przez najbliższe 5 minut proszę kolorować otrzymaną kolorwankę z mandalą. Naciśnij spację aby zacząć odmierzać czas,,-->--,0,1,1,0,,,,,0,47,47,55,,,,,,,,,,,,,,,,,,,,,954.1394445549231,954.1394445549231,right,0,0.44167646602727473,,,,,,5,21,M,N,2023-01-03_13h01.36.745,Flanker,2022.2.4,None,
Przez najbliższe 5 minut proszę kolorować otrzymaną kolorwankę z mandalą. Naciśnij spację aby zacząć odmierzać czas,,>>>>>,0,1,1,0,,,,,0,48,48,2,,,,,,,,,,,,,,,,,,,,,955.6025700919563,955.6025700919563,right,0,0.44254858104977757,,,,,,5,21,M,N,2023-01-03_13h01.36.745,Flanker,2022.2.4,None,
Przez najbliższe 5 minut proszę kolorować otrzymaną kolorwankę z mandalą. Naciśnij spację aby zacząć odmierzać czas,,<<><<,0,1,1,0,,,,,0,49,49,24,,,,,,,,,,,,,,,,,,,,,957.0499512449605,957.0499512449605,left,0,0.40615351602900773,,,,,,5,21,M,N,2023-01-03_13h01.36.745,Flanker,2022.2.4,None,
Przez najbliższe 5 minut proszę kolorować otrzymaną kolorwankę z mandalą. Naciśnij spację aby zacząć odmierzać czas,,--<--,0,1,1,0,,,,,0,50,50,41,,,,,,,,,,,,,,,,,,,,,958.4603774569696,958.4603774569696,left,0,0.4006427270360291,,,,,,5,21,M,N,2023-01-03_13h01.36.745,Flanker,2022.2.4,None,
Przez najbliższe 5 minut proszę kolorować otrzymaną kolorwankę z mandalą. Naciśnij spację aby zacząć odmierzać czas,,>>>>>,0,1,1,0,,,,,0,51,51,1,,,,,,,,,,,,,,,,,,,,,959.8721424799878,959.8721424799878,right,0,0.37990574608556926,,,,,,5,21,M,N,2023-01-03_13h01.36.745,Flanker,2022.2.4,None,
Przez najbliższe 5 minut proszę kolorować otrzymaną kolorwankę z mandalą. Naciśnij spację aby zacząć odmierzać czas,,>><>>,0,1,1,0,,,,,0,52,52,38,,,,,,,,,,,,,,,,,,,,,961.2665882969741,961.2665882969741,left,0,0.4313679779879749,,,,,,5,21,M,N,2023-01-03_13h01.36.745,Flanker,2022.2.4,None,
Przez najbliższe 5 minut proszę kolorować otrzymaną kolorwankę z mandalą. Naciśnij spację aby zacząć odmierzać czas,,>>>>>,0,1,1,0,,,,,0,53,53,6,,,,,,,,,,,,,,,,,,,,,962.7057854909217,962.7057854909217,right,0,0.31519264995586127,,,,,,5,21,M,N,2023-01-03_13h01.36.745,Flanker,2022.2.4,None,
Przez najbliższe 5 minut proszę kolorować otrzymaną kolorwankę z mandalą. Naciśnij spację aby zacząć odmierzać czas,,-->--,0,1,1,0,,,,,0,54,54,59,,,,,,,,,,,,,,,,,,,,,964.0270340739517,964.0270340739517,right,0,0.5218786380719393,,,,,,5,21,M,N,2023-01-03_13h01.36.745,Flanker,2022.2.4,None,
Przez najbliższe 5 minut proszę kolorować otrzymaną kolorwankę z mandalą. Naciśnij spację aby zacząć odmierzać czas,,>><>>,0,1,1,0,,,,,0,55,55,39,,,,,,,,,,,,,,,,,,,,,965.557104573003,965.557104573003,left,0,0.4048350859666243,,,,,,5,21,M,N,2023-01-03_13h01.36.745,Flanker,2022.2.4,None,
Przez najbliższe 5 minut proszę kolorować otrzymaną kolorwankę z mandalą. Naciśnij spację aby zacząć odmierzać czas,,>><>>,0,1,1,0,,,,,0,56,56,33,,,,,,,,,,,,,,,,,,,,,966.9763075319352,966.9763075319352,left,0,0.5655739770736545,,,,,,5,21,M,N,2023-01-03_13h01.36.745,Flanker,2022.2.4,None,
Przez najbliższe 5 minut proszę kolorować otrzymaną kolorwankę z mandalą. Naciśnij spację aby zacząć odmierzać czas,,<<<<<,0,1,1,0,,,,,0,57,57,10,,,,,,,,,,,,,,,,,,,,,968.5496823870344,968.5496823870344,left,0,0.38719331100583076,,,,,,5,21,M,N,2023-01-03_13h01.36.745,Flanker,2022.2.4,None,
Przez najbliższe 5 minut proszę kolorować otrzymaną kolorwankę z mandalą. Naciśnij spację aby zacząć odmierzać czas,,--<--,0,1,1,0,,,,,0,58,58,42,,,,,,,,,,,,,,,,,,,,,969.9388802680187,969.9388802680187,left,0,0.30789933900814503,,,,,,5,21,M,N,2023-01-03_13h01.36.745,Flanker,2022.2.4,None,
Przez najbliższe 5 minut proszę kolorować otrzymaną kolorwankę z mandalą. Naciśnij spację aby zacząć odmierzać czas,,<<><<,0,1,1,0,,,,,0,59,59,27,,,,,,,,,,,,,,,,,,,,,971.2495487539563,971.2495487539563,right,0,0.6802088000113145,,,,,,5,21,M,N,2023-01-03_13h01.36.745,Flanker,2022.2.4,None,
Przez najbliższe 5 minut proszę kolorować otrzymaną kolorwankę z mandalą. Naciśnij spację aby zacząć odmierzać czas,,,0,1,1,0,,,,,,,,,,,,,,,,,,,,,,,,,,,,,,,,,,,,,,,5,21,M,N,2023-01-03_13h01.36.745,Flanker,2022.2.4,None,
,,,,,,,,,,,,,,,,,,,,,,,,,,,,,,,,,,,,,,,,,972.9409021049505,972.9409021049505,space,1.9547213850310072,5,21,M,N,2023-01-03_13h01.36.745,Flanker,2022.2.4,None,
