kolorowanka,Example,Stimuli,proby.thisRepN,proby.thisTrialN,proby.thisN,proby.thisIndex,zapoznanie.thisRepN,zapoznanie.thisTrialN,zapoznanie.thisN,zapoznanie.thisIndex,Warunki.thisRepN,Warunki.thisTrialN,Warunki.thisN,Warunki.thisIndex,Intro.started,Intro_resp.started,Intro_resp.keys,Intro_resp.rt,Kolorowanie1.started,starttt.started,starttt.keys,starttt.rt,koloruj.started,Instruction.started,key_resp.started,key_resp.keys,key_resp.rt,Wyjasnienie.started,text.started,odp_przyk.started,odp_przyk.keys,odp_przyk.corr,odp_przyk.rt,zapo.started,Zadanie.started,Odp.started,Odp.keys,Odp.corr,Odp.rt,zapo.stopped,thanks.started,KONIEC.started,KONIEC.keys,KONIEC.rt,participant,Wiek (w latach),Płeć (K/M),Entropia,date,expName,psychopyVersion,frameRate,
,,,,,,,,,,,,,,,27.42092034604870,29.39743089408150,space,9.70757499197498,,,,,,,,,,,,,,,,,,,,,,,,,,,8,50,K,N,2023-01-03_14h55.48.523,Flanker,2022.2.4,None,
Przez najbliższe 5 minut proszę kolorować otrzymaną pustą kartkę. Naciśnij spację aby zacząć odmierzać czas,-->--,,0,0,0,1,0,0,0,5,,,,,,,,,39.15703547804150,40.11621214810290,space,13.69041153904980,53.83548113203140,353.83507212705400,355.8323374670000,space,35.379560341942100,391.24847877305,400.2271170760510,400.2271170760510,right,0,7.671463088016030,,,,,,,,,,,,8,50,K,N,2023-01-03_14h55.48.523,Flanker,2022.2.4,None,
Przez najbliższe 5 minut proszę kolorować otrzymaną pustą kartkę. Naciśnij spację aby zacząć odmierzać czas,<<><<,,0,0,0,1,0,1,1,2,,,,,,,,,,,,,,,,,,,408.921022493043,408.921022493043,left,0,1.1920537409605500,,,,,,,,,,,,8,50,K,N,2023-01-03_14h55.48.523,Flanker,2022.2.4,None,
Przez najbliższe 5 minut proszę kolorować otrzymaną pustą kartkę. Naciśnij spację aby zacząć odmierzać czas,>>>>>,,0,0,0,1,0,2,2,1,,,,,,,,,,,,,,,,,,,411.12309627910100,411.12309627910100,right,0,0.8708440660266210,,,,,,,,,,,,8,50,K,N,2023-01-03_14h55.48.523,Flanker,2022.2.4,None,
Przez najbliższe 5 minut proszę kolorować otrzymaną pustą kartkę. Naciśnij spację aby zacząć odmierzać czas,>><>>,,0,0,0,1,0,3,3,3,,,,,,,,,,,,,,,,,,,412.998039836064,412.998039836064,right,0,0.9208598750410600,,,,,,,,,,,,8,50,K,N,2023-01-03_14h55.48.523,Flanker,2022.2.4,None,
Przez najbliższe 5 minut proszę kolorować otrzymaną pustą kartkę. Naciśnij spację aby zacząć odmierzać czas,--<--,,0,0,0,1,0,4,4,4,,,,,,,,,,,,,,,,,,,414.9330757390710,414.9330757390710,left,0,5.666572417016140,,,,,,,,,,,,8,50,K,N,2023-01-03_14h55.48.523,Flanker,2022.2.4,None,
Przez najbliższe 5 minut proszę kolorować otrzymaną pustą kartkę. Naciśnij spację aby zacząć odmierzać czas,<<<<<,,0,0,0,1,0,5,5,0,,,,,,,,,,,,,,,,,,,421.6116368660010,421.6116368660010,left,0,1.4065926580224200,,,,,,,,,,,,8,50,K,N,2023-01-03_14h55.48.523,Flanker,2022.2.4,None,
Przez najbliższe 5 minut proszę kolorować otrzymaną pustą kartkę. Naciśnij spację aby zacząć odmierzać czas,,<<><<,0,0,0,1,,,,,0,0,0,24,,,,,,,,,,,,,,,,,,,,424.0265057880900,432.0399668440220,432.0399668440220,right,0,2.0878693039994700,431.0321699590420,,,,,8,50,K,N,2023-01-03_14h55.48.523,Flanker,2022.2.4,None,
Przez najbliższe 5 minut proszę kolorować otrzymaną pustą kartkę. Naciśnij spację aby zacząć odmierzać czas,,>>>>>,0,0,0,1,,,,,0,1,1,6,,,,,,,,,,,,,,,,,,,,,435.14655050600400,435.14655050600400,right,0,0.711017400957644,,,,,,8,50,K,N,2023-01-03_14h55.48.523,Flanker,2022.2.4,None,
Przez najbliższe 5 minut proszę kolorować otrzymaną pustą kartkę. Naciśnij spację aby zacząć odmierzać czas,,<<><<,0,0,0,1,,,,,0,2,2,28,,,,,,,,,,,,,,,,,,,,,436.8587205040970,436.8587205040970,right,0,1.7806431199424000,,,,,,8,50,K,N,2023-01-03_14h55.48.523,Flanker,2022.2.4,None,
Przez najbliższe 5 minut proszę kolorować otrzymaną pustą kartkę. Naciśnij spację aby zacząć odmierzać czas,,>>>>> ,0,0,0,1,,,,,0,3,3,5,,,,,,,,,,,,,,,,,,,,,439.6482814170890,439.6482814170890,right,0,0.7480713420081880,,,,,,8,50,K,N,2023-01-03_14h55.48.523,Flanker,2022.2.4,None,
Przez najbliższe 5 minut proszę kolorować otrzymaną pustą kartkę. Naciśnij spację aby zacząć odmierzać czas,,-->--,0,0,0,1,,,,,0,4,4,58,,,,,,,,,,,,,,,,,,,,,441.4047228510030,441.4047228510030,right,0,0.5675844280049210,,,,,,8,50,K,N,2023-01-03_14h55.48.523,Flanker,2022.2.4,None,
Przez najbliższe 5 minut proszę kolorować otrzymaną pustą kartkę. Naciśnij spację aby zacząć odmierzać czas,,--<--,0,0,0,1,,,,,0,5,5,46,,,,,,,,,,,,,,,,,,,,,442.9914033031090,442.9914033031090,left,0,1.1308804609580000,,,,,,8,50,K,N,2023-01-03_14h55.48.523,Flanker,2022.2.4,None,
Przez najbliższe 5 minut proszę kolorować otrzymaną pustą kartkę. Naciśnij spację aby zacząć odmierzać czas,,>>>>>,0,0,0,1,,,,,0,6,6,3,,,,,,,,,,,,,,,,,,,,,445.136772486032,445.136772486032,right,0,0.8055086270906030,,,,,,8,50,K,N,2023-01-03_14h55.48.523,Flanker,2022.2.4,None,
Przez najbliższe 5 minut proszę kolorować otrzymaną pustą kartkę. Naciśnij spację aby zacząć odmierzać czas,,-->--,0,0,0,1,,,,,0,7,7,55,,,,,,,,,,,,,,,,,,,,,446.95711482910000,446.95711482910000,right,0,0.7460237820632760,,,,,,8,50,K,N,2023-01-03_14h55.48.523,Flanker,2022.2.4,None,
Przez najbliższe 5 minut proszę kolorować otrzymaną pustą kartkę. Naciśnij spację aby zacząć odmierzać czas,,>>>>>,0,0,0,1,,,,,0,8,8,4,,,,,,,,,,,,,,,,,,,,,448.7147799930540,448.7147799930540,right,0,0.7194384899921720,,,,,,8,50,K,N,2023-01-03_14h55.48.523,Flanker,2022.2.4,None,
Przez najbliższe 5 minut proszę kolorować otrzymaną pustą kartkę. Naciśnij spację aby zacząć odmierzać czas,,<<<<<,0,0,0,1,,,,,0,9,9,10,,,,,,,,,,,,,,,,,,,,,450.44798764109100,450.44798764109100,left,0,0.9291655489942060,,,,,,8,50,K,N,2023-01-03_14h55.48.523,Flanker,2022.2.4,None,
Przez najbliższe 5 minut proszę kolorować otrzymaną pustą kartkę. Naciśnij spację aby zacząć odmierzać czas,,-->--,0,0,0,1,,,,,0,10,10,59,,,,,,,,,,,,,,,,,,,,,452.38715953810600,452.38715953810600,right,0,0.9219565619714560,,,,,,8,50,K,N,2023-01-03_14h55.48.523,Flanker,2022.2.4,None,
Przez najbliższe 5 minut proszę kolorować otrzymaną pustą kartkę. Naciśnij spację aby zacząć odmierzać czas,,-->--,0,0,0,1,,,,,0,11,11,57,,,,,,,,,,,,,,,,,,,,,454.3276962561070,454.3276962561070,right,0,0.7594216279685500,,,,,,8,50,K,N,2023-01-03_14h55.48.523,Flanker,2022.2.4,None,
Przez najbliższe 5 minut proszę kolorować otrzymaną pustą kartkę. Naciśnij spację aby zacząć odmierzać czas,,<<><<,0,0,0,1,,,,,0,12,12,26,,,,,,,,,,,,,,,,,,,,,456.1036278740500,456.1036278740500,right,0,1.9221781579544800,,,,,,8,50,K,N,2023-01-03_14h55.48.523,Flanker,2022.2.4,None,
Przez najbliższe 5 minut proszę kolorować otrzymaną pustą kartkę. Naciśnij spację aby zacząć odmierzać czas,,>><>>,0,0,0,1,,,,,0,13,13,30,,,,,,,,,,,,,,,,,,,,,459.04755758610600,459.04755758610600,left,0,1.816439307993280,,,,,,8,50,K,N,2023-01-03_14h55.48.523,Flanker,2022.2.4,None,
Przez najbliższe 5 minut proszę kolorować otrzymaną pustą kartkę. Naciśnij spację aby zacząć odmierzać czas,,<<><<,0,0,0,1,,,,,0,14,14,23,,,,,,,,,,,,,,,,,,,,,461.87015923007900,461.87015923007900,right,0,1.8958608410321200,,,,,,8,50,K,N,2023-01-03_14h55.48.523,Flanker,2022.2.4,None,
Przez najbliższe 5 minut proszę kolorować otrzymaną pustą kartkę. Naciśnij spację aby zacząć odmierzać czas,,>><>>,0,0,0,1,,,,,0,15,15,35,,,,,,,,,,,,,,,,,,,,,464.7646489000180,464.7646489000180,left,0,1.760976820020010,,,,,,8,50,K,N,2023-01-03_14h55.48.523,Flanker,2022.2.4,None,
Przez najbliższe 5 minut proszę kolorować otrzymaną pustą kartkę. Naciśnij spację aby zacząć odmierzać czas,,<<><<,0,0,0,1,,,,,0,16,16,21,,,,,,,,,,,,,,,,,,,,,467.5427380820040,467.5427380820040,right,0,1.0501298970775700,,,,,,8,50,K,N,2023-01-03_14h55.48.523,Flanker,2022.2.4,None,
Przez najbliższe 5 minut proszę kolorować otrzymaną pustą kartkę. Naciśnij spację aby zacząć odmierzać czas,,--<--,0,0,0,1,,,,,0,17,17,47,,,,,,,,,,,,,,,,,,,,,469.59773059003100,469.59773059003100,left,0,1.1720440729986900,,,,,,8,50,K,N,2023-01-03_14h55.48.523,Flanker,2022.2.4,None,
Przez najbliższe 5 minut proszę kolorować otrzymaną pustą kartkę. Naciśnij spację aby zacząć odmierzać czas,,>><>>,0,0,0,1,,,,,0,18,18,31,,,,,,,,,,,,,,,,,,,,,471.7809579640160,471.7809579640160,left,0,1.6617417649831600,,,,,,8,50,K,N,2023-01-03_14h55.48.523,Flanker,2022.2.4,None,
Przez najbliższe 5 minut proszę kolorować otrzymaną pustą kartkę. Naciśnij spację aby zacząć odmierzać czas,,<<<<<,0,0,0,1,,,,,0,19,19,15,,,,,,,,,,,,,,,,,,,,,474.4483736670810,474.4483736670810,left,0,0.7820919048972430,,,,,,8,50,K,N,2023-01-03_14h55.48.523,Flanker,2022.2.4,None,
Przez najbliższe 5 minut proszę kolorować otrzymaną pustą kartkę. Naciśnij spację aby zacząć odmierzać czas,,<<<<<,0,0,0,1,,,,,0,20,20,19,,,,,,,,,,,,,,,,,,,,,476.2518433070510,476.2518433070510,left,0,0.5467414690647270,,,,,,8,50,K,N,2023-01-03_14h55.48.523,Flanker,2022.2.4,None,
Przez najbliższe 5 minut proszę kolorować otrzymaną pustą kartkę. Naciśnij spację aby zacząć odmierzać czas,,--<--,0,0,0,1,,,,,0,21,21,41,,,,,,,,,,,,,,,,,,,,,477.79993031709500,477.79993031709500,left,0,0.46067184198182100,,,,,,8,50,K,N,2023-01-03_14h55.48.523,Flanker,2022.2.4,None,
Przez najbliższe 5 minut proszę kolorować otrzymaną pustą kartkę. Naciśnij spację aby zacząć odmierzać czas,,>>>>>,0,0,0,1,,,,,0,22,22,8,,,,,,,,,,,,,,,,,,,,,479.28076884301800,479.28076884301800,right,0,0.7496597209246830,,,,,,8,50,K,N,2023-01-03_14h55.48.523,Flanker,2022.2.4,None,
Przez najbliższe 5 minut proszę kolorować otrzymaną pustą kartkę. Naciśnij spację aby zacząć odmierzać czas,,<<<<<,0,0,0,1,,,,,0,23,23,18,,,,,,,,,,,,,,,,,,,,,481.0378562640400,481.0378562640400,left,0,0.7076242859475320,,,,,,8,50,K,N,2023-01-03_14h55.48.523,Flanker,2022.2.4,None,
Przez najbliższe 5 minut proszę kolorować otrzymaną pustą kartkę. Naciśnij spację aby zacząć odmierzać czas,,--<--,0,0,0,1,,,,,0,24,24,48,,,,,,,,,,,,,,,,,,,,,482.7553668030310,482.7553668030310,left,0,0.5861678100191060,,,,,,8,50,K,N,2023-01-03_14h55.48.523,Flanker,2022.2.4,None,
Przez najbliższe 5 minut proszę kolorować otrzymaną pustą kartkę. Naciśnij spację aby zacząć odmierzać czas,,<<<<<,0,0,0,1,,,,,0,25,25,14,,,,,,,,,,,,,,,,,,,,,484.36221058806400,484.36221058806400,left,0,0.488426371011883,,,,,,8,50,K,N,2023-01-03_14h55.48.523,Flanker,2022.2.4,None,
Przez najbliższe 5 minut proszę kolorować otrzymaną pustą kartkę. Naciśnij spację aby zacząć odmierzać czas,,--<--,0,0,0,1,,,,,0,26,26,45,,,,,,,,,,,,,,,,,,,,,485.8533498441100,485.8533498441100,left,0,0.4279725190717730,,,,,,8,50,K,N,2023-01-03_14h55.48.523,Flanker,2022.2.4,None,
Przez najbliższe 5 minut proszę kolorować otrzymaną pustą kartkę. Naciśnij spację aby zacząć odmierzać czas,,-->--,0,0,0,1,,,,,0,27,27,52,,,,,,,,,,,,,,,,,,,,,487.2911270930200,487.2911270930200,right,0,0.5775077879661690,,,,,,8,50,K,N,2023-01-03_14h55.48.523,Flanker,2022.2.4,None,
Przez najbliższe 5 minut proszę kolorować otrzymaną pustą kartkę. Naciśnij spację aby zacząć odmierzać czas,,<<><<,0,0,0,1,,,,,0,28,28,27,,,,,,,,,,,,,,,,,,,,,488.8825863270320,488.8825863270320,right,0,0.770609067985788,,,,,,8,50,K,N,2023-01-03_14h55.48.523,Flanker,2022.2.4,None,
Przez najbliższe 5 minut proszę kolorować otrzymaną pustą kartkę. Naciśnij spację aby zacząć odmierzać czas,,>>>>>,0,0,0,1,,,,,0,29,29,9,,,,,,,,,,,,,,,,,,,,,490.66116070502900,490.66116070502900,right,0,0.47404047392774400,,,,,,8,50,K,N,2023-01-03_14h55.48.523,Flanker,2022.2.4,None,
Przez najbliższe 5 minut proszę kolorować otrzymaną pustą kartkę. Naciśnij spację aby zacząć odmierzać czas,,-->--,0,0,0,1,,,,,0,30,30,56,,,,,,,,,,,,,,,,,,,,,492.1358366400240,492.1358366400240,right,0,0.6662861870136110,,,,,,8,50,K,N,2023-01-03_14h55.48.523,Flanker,2022.2.4,None,
Przez najbliższe 5 minut proszę kolorować otrzymaną pustą kartkę. Naciśnij spację aby zacząć odmierzać czas,,<<><<,0,0,0,1,,,,,0,31,31,20,,,,,,,,,,,,,,,,,,,,,493.8156278440730,493.8156278440730,right,0,0.9514392130076890,,,,,,8,50,K,N,2023-01-03_14h55.48.523,Flanker,2022.2.4,None,
Przez najbliższe 5 minut proszę kolorować otrzymaną pustą kartkę. Naciśnij spację aby zacząć odmierzać czas,,>><>>,0,0,0,1,,,,,0,32,32,36,,,,,,,,,,,,,,,,,,,,,495.7805328790560,495.7805328790560,left,0,1.2858351280447100,,,,,,8,50,K,N,2023-01-03_14h55.48.523,Flanker,2022.2.4,None,
Przez najbliższe 5 minut proszę kolorować otrzymaną pustą kartkę. Naciśnij spację aby zacząć odmierzać czas,,--<--,0,0,0,1,,,,,0,33,33,49,,,,,,,,,,,,,,,,,,,,,498.081225992064,498.081225992064,left,0,0.6499766840133820,,,,,,8,50,K,N,2023-01-03_14h55.48.523,Flanker,2022.2.4,None,
Przez najbliższe 5 minut proszę kolorować otrzymaną pustą kartkę. Naciśnij spację aby zacząć odmierzać czas,,<<<<<,0,0,0,1,,,,,0,34,34,16,,,,,,,,,,,,,,,,,,,,,499.7361185140910,499.7361185140910,left,0,0.633988332003355,,,,,,8,50,K,N,2023-01-03_14h55.48.523,Flanker,2022.2.4,None,
Przez najbliższe 5 minut proszę kolorować otrzymaną pustą kartkę. Naciśnij spację aby zacząć odmierzać czas,,>>>>>,0,0,0,1,,,,,0,35,35,2,,,,,,,,,,,,,,,,,,,,,501.3883451500440,501.3883451500440,right,0,0.641650547971949,,,,,,8,50,K,N,2023-01-03_14h55.48.523,Flanker,2022.2.4,None,
Przez najbliższe 5 minut proszę kolorować otrzymaną pustą kartkę. Naciśnij spację aby zacząć odmierzać czas,,<<<<<,0,0,0,1,,,,,0,36,36,17,,,,,,,,,,,,,,,,,,,,,503.0516104020640,503.0516104020640,left,0,0.7455863920040430,,,,,,8,50,K,N,2023-01-03_14h55.48.523,Flanker,2022.2.4,None,
Przez najbliższe 5 minut proszę kolorować otrzymaną pustą kartkę. Naciśnij spację aby zacząć odmierzać czas,,>><>>,0,0,0,1,,,,,0,37,37,37,,,,,,,,,,,,,,,,,,,,,504.8041141120480,504.8041141120480,left,0,1.2927534710615900,,,,,,8,50,K,N,2023-01-03_14h55.48.523,Flanker,2022.2.4,None,
Przez najbliższe 5 minut proszę kolorować otrzymaną pustą kartkę. Naciśnij spację aby zacząć odmierzać czas,,--<--,0,0,0,1,,,,,0,38,38,42,,,,,,,,,,,,,,,,,,,,,507.107488037087,507.107488037087,left,0,0.5933673490071670,,,,,,8,50,K,N,2023-01-03_14h55.48.523,Flanker,2022.2.4,None,
Przez najbliższe 5 minut proszę kolorować otrzymaną pustą kartkę. Naciśnij spację aby zacząć odmierzać czas,,>><>>,0,0,0,1,,,,,0,39,39,39,,,,,,,,,,,,,,,,,,,,,508.7080836290260,508.7080836290260,left,0,1.0187235829653200,,,,,,8,50,K,N,2023-01-03_14h55.48.523,Flanker,2022.2.4,None,
Przez najbliższe 5 minut proszę kolorować otrzymaną pustą kartkę. Naciśnij spację aby zacząć odmierzać czas,,>>>>>,0,0,0,1,,,,,0,40,40,0,,,,,,,,,,,,,,,,,,,,,510.76362781308100,510.76362781308100,right,0,0.6282864370150490,,,,,,8,50,K,N,2023-01-03_14h55.48.523,Flanker,2022.2.4,None,
Przez najbliższe 5 minut proszę kolorować otrzymaną pustą kartkę. Naciśnij spację aby zacząć odmierzać czas,,-->--,0,0,0,1,,,,,0,41,41,53,,,,,,,,,,,,,,,,,,,,,512.4074796400960,512.4074796400960,right,0,0.4211610449710860,,,,,,8,50,K,N,2023-01-03_14h55.48.523,Flanker,2022.2.4,None,
Przez najbliższe 5 minut proszę kolorować otrzymaną pustą kartkę. Naciśnij spację aby zacząć odmierzać czas,,-->--,0,0,0,1,,,,,0,42,42,50,,,,,,,,,,,,,,,,,,,,,513.8408734491100,513.8408734491100,right,0,0.4538915470475330,,,,,,8,50,K,N,2023-01-03_14h55.48.523,Flanker,2022.2.4,None,
Przez najbliższe 5 minut proszę kolorować otrzymaną pustą kartkę. Naciśnij spację aby zacząć odmierzać czas,,<<><<,0,0,0,1,,,,,0,43,43,29,,,,,,,,,,,,,,,,,,,,,515.2976167480230,515.2976167480230,right,0,1.1229498179163800,,,,,,8,50,K,N,2023-01-03_14h55.48.523,Flanker,2022.2.4,None,
Przez najbliższe 5 minut proszę kolorować otrzymaną pustą kartkę. Naciśnij spację aby zacząć odmierzać czas,,>><>>,0,0,0,1,,,,,0,44,44,32,,,,,,,,,,,,,,,,,,,,,517.4318067030980,517.4318067030980,left,0,1.272889505024070,,,,,,8,50,K,N,2023-01-03_14h55.48.523,Flanker,2022.2.4,None,
Przez najbliższe 5 minut proszę kolorować otrzymaną pustą kartkę. Naciśnij spację aby zacząć odmierzać czas,,>><>>,0,0,0,1,,,,,0,45,45,38,,,,,,,,,,,,,,,,,,,,,519.7070583130700,519.7070583130700,left,0,0.9267130719963460,,,,,,8,50,K,N,2023-01-03_14h55.48.523,Flanker,2022.2.4,None,
Przez najbliższe 5 minut proszę kolorować otrzymaną pustą kartkę. Naciśnij spację aby zacząć odmierzać czas,,--<--,0,0,0,1,,,,,0,46,46,44,,,,,,,,,,,,,,,,,,,,,521.6372519920110,521.6372519920110,left,0,0.4794509910279890,,,,,,8,50,K,N,2023-01-03_14h55.48.523,Flanker,2022.2.4,None,
Przez najbliższe 5 minut proszę kolorować otrzymaną pustą kartkę. Naciśnij spację aby zacząć odmierzać czas,,>><>>,0,0,0,1,,,,,0,47,47,33,,,,,,,,,,,,,,,,,,,,,523.125441283104,523.125441283104,left,0,0.7631257409229880,,,,,,8,50,K,N,2023-01-03_14h55.48.523,Flanker,2022.2.4,None,
Przez najbliższe 5 minut proszę kolorować otrzymaną pustą kartkę. Naciśnij spację aby zacząć odmierzać czas,,<<<<<,0,0,0,1,,,,,0,48,48,13,,,,,,,,,,,,,,,,,,,,,524.8989829641070,524.8989829641070,left,0,0.4304035661043600,,,,,,8,50,K,N,2023-01-03_14h55.48.523,Flanker,2022.2.4,None,
Przez najbliższe 5 minut proszę kolorować otrzymaną pustą kartkę. Naciśnij spację aby zacząć odmierzać czas,,>>>>>,0,0,0,1,,,,,0,49,49,7,,,,,,,,,,,,,,,,,,,,,526.3502215479970,526.3502215479970,right,0,0.5061536260182040,,,,,,8,50,K,N,2023-01-03_14h55.48.523,Flanker,2022.2.4,None,
Przez najbliższe 5 minut proszę kolorować otrzymaną pustą kartkę. Naciśnij spację aby zacząć odmierzać czas,,<<><<,0,0,0,1,,,,,0,50,50,22,,,,,,,,,,,,,,,,,,,,,527.8573836450230,527.8573836450230,right,0,0.47005028591956900,,,,,,8,50,K,N,2023-01-03_14h55.48.523,Flanker,2022.2.4,None,
Przez najbliższe 5 minut proszę kolorować otrzymaną pustą kartkę. Naciśnij spację aby zacząć odmierzać czas,,--<--,0,0,0,1,,,,,0,51,51,40,,,,,,,,,,,,,,,,,,,,,529.3483955150000,529.3483955150000,left,0,0.5621060900157320,,,,,,8,50,K,N,2023-01-03_14h55.48.523,Flanker,2022.2.4,None,
Przez najbliższe 5 minut proszę kolorować otrzymaną pustą kartkę. Naciśnij spację aby zacząć odmierzać czas,,-->--,0,0,0,1,,,,,0,52,52,54,,,,,,,,,,,,,,,,,,,,,530.9238268600310,530.9238268600310,right,0,0.4696270659333100,,,,,,8,50,K,N,2023-01-03_14h55.48.523,Flanker,2022.2.4,None,
Przez najbliższe 5 minut proszę kolorować otrzymaną pustą kartkę. Naciśnij spację aby zacząć odmierzać czas,,--<--,0,0,0,1,,,,,0,53,53,43,,,,,,,,,,,,,,,,,,,,,532.3981661350700,532.3981661350700,left,0,0.40634033107198800,,,,,,8,50,K,N,2023-01-03_14h55.48.523,Flanker,2022.2.4,None,
Przez najbliższe 5 minut proszę kolorować otrzymaną pustą kartkę. Naciśnij spację aby zacząć odmierzać czas,,-->--,0,0,0,1,,,,,0,54,54,51,,,,,,,,,,,,,,,,,,,,,533.8282731270880,533.8282731270880,right,0,0.4449262178968640,,,,,,8,50,K,N,2023-01-03_14h55.48.523,Flanker,2022.2.4,None,
Przez najbliższe 5 minut proszę kolorować otrzymaną pustą kartkę. Naciśnij spację aby zacząć odmierzać czas,,<<<<<,0,0,0,1,,,,,0,55,55,11,,,,,,,,,,,,,,,,,,,,,535.2949101401030,535.2949101401030,left,0,0.45841992599889600,,,,,,8,50,K,N,2023-01-03_14h55.48.523,Flanker,2022.2.4,None,
Przez najbliższe 5 minut proszę kolorować otrzymaną pustą kartkę. Naciśnij spację aby zacząć odmierzać czas,,<<<<<,0,0,0,1,,,,,0,56,56,12,,,,,,,,,,,,,,,,,,,,,536.7644923290940,536.7644923290940,left,0,0.5827341970289130,,,,,,8,50,K,N,2023-01-03_14h55.48.523,Flanker,2022.2.4,None,
Przez najbliższe 5 minut proszę kolorować otrzymaną pustą kartkę. Naciśnij spację aby zacząć odmierzać czas,,>><>>,0,0,0,1,,,,,0,57,57,34,,,,,,,,,,,,,,,,,,,,,538.3478492370340,538.3478492370340,left,0,0.771285229944624,,,,,,8,50,K,N,2023-01-03_14h55.48.523,Flanker,2022.2.4,None,
Przez najbliższe 5 minut proszę kolorować otrzymaną pustą kartkę. Naciśnij spację aby zacząć odmierzać czas,,>>>>>,0,0,0,1,,,,,0,58,58,1,,,,,,,,,,,,,,,,,,,,,540.1470813520720,540.1470813520720,right,0,0.4142161459894850,,,,,,8,50,K,N,2023-01-03_14h55.48.523,Flanker,2022.2.4,None,
Przez najbliższe 5 minut proszę kolorować otrzymaną pustą kartkę. Naciśnij spację aby zacząć odmierzać czas,,<<><<,0,0,0,1,,,,,0,59,59,25,,,,,,,,,,,,,,,,,,,,,541.5687150260200,541.5687150260200,right,0,0.7655782229267060,,,,,,8,50,K,N,2023-01-03_14h55.48.523,Flanker,2022.2.4,None,
Przez najbliższe 5 minut proszę kolorować otrzymaną pustą kartkę. Naciśnij spację aby zacząć odmierzać czas,,,0,0,0,1,,,,,,,,,,,,,,,,,,,,,,,,,,,,,,,,,,,,,,,8,50,K,N,2023-01-03_14h55.48.523,Flanker,2022.2.4,None,
Przez najbliższe 5 minut proszę kolorować otrzymaną kolorwankę z mandalą. Naciśnij spację aby zacząć odmierzać czas,>>>>>,,0,1,1,0,0,0,0,1,,,,,,,,,542.3908413440220,543.3615643170200,space,12.814574327901900,556.2131328760880,856.217983635026,858.1968192270720,space,21.33503170311450,879.5486687340310,888.5379579371070,888.5379579371070,right,0,0.8708821700420230,,,,,,,,,,,,8,50,K,N,2023-01-03_14h55.48.523,Flanker,2022.2.4,None,
Przez najbliższe 5 minut proszę kolorować otrzymaną kolorwankę z mandalą. Naciśnij spację aby zacząć odmierzać czas,-->--,,0,1,1,0,0,1,1,5,,,,,,,,,,,,,,,,,,,890.4294872221070,890.4294872221070,right,0,0.6072865190217270,,,,,,,,,,,,8,50,K,N,2023-01-03_14h55.48.523,Flanker,2022.2.4,None,
Przez najbliższe 5 minut proszę kolorować otrzymaną kolorwankę z mandalą. Naciśnij spację aby zacząć odmierzać czas,>><>>,,0,1,1,0,0,2,2,3,,,,,,,,,,,,,,,,,,,892.0590578990520,892.0590578990520,left,0,0.7186252190731470,,,,,,,,,,,,8,50,K,N,2023-01-03_14h55.48.523,Flanker,2022.2.4,None,
Przez najbliższe 5 minut proszę kolorować otrzymaną kolorwankę z mandalą. Naciśnij spację aby zacząć odmierzać czas,<<<<<,,0,1,1,0,0,3,3,0,,,,,,,,,,,,,,,,,,,893.786256318097,893.786256318097,left,0,0.5695117060095070,,,,,,,,,,,,8,50,K,N,2023-01-03_14h55.48.523,Flanker,2022.2.4,None,
Przez najbliższe 5 minut proszę kolorować otrzymaną kolorwankę z mandalą. Naciśnij spację aby zacząć odmierzać czas,<<><<,,0,1,1,0,0,4,4,2,,,,,,,,,,,,,,,,,,,895.3691673780560,895.3691673780560,right,0,0.7205379019724210,,,,,,,,,,,,8,50,K,N,2023-01-03_14h55.48.523,Flanker,2022.2.4,None,
Przez najbliższe 5 minut proszę kolorować otrzymaną kolorwankę z mandalą. Naciśnij spację aby zacząć odmierzać czas,--<--,,0,1,1,0,0,5,5,4,,,,,,,,,,,,,,,,,,,897.0984416700670,897.0984416700670,left,0,0.6292404630221430,,,,,,,,,,,,8,50,K,N,2023-01-03_14h55.48.523,Flanker,2022.2.4,None,
Przez najbliższe 5 minut proszę kolorować otrzymaną kolorwankę z mandalą. Naciśnij spację aby zacząć odmierzać czas,,-->--,0,1,1,0,,,,,0,0,0,58,,,,,,,,,,,,,,,,,,,,898.7360125650890,906.7392845380820,906.7392845380820,right,0,0.5902450219728050,,,,,,8,50,K,N,2023-01-03_14h55.48.523,Flanker,2022.2.4,None,
Przez najbliższe 5 minut proszę kolorować otrzymaną kolorwankę z mandalą. Naciśnij spację aby zacząć odmierzać czas,,<<<<<,0,1,1,0,,,,,0,1,1,19,,,,,,,,,,,,,,,,,,,,,908.3381812690060,908.3381812690060,left,0,0.4471117400098590,,,,,,8,50,K,N,2023-01-03_14h55.48.523,Flanker,2022.2.4,None,
Przez najbliższe 5 minut proszę kolorować otrzymaną kolorwankę z mandalą. Naciśnij spację aby zacząć odmierzać czas,,--<--,0,1,1,0,,,,,0,2,2,49,,,,,,,,,,,,,,,,,,,,,909.798123429995,909.798123429995,left,0,0.4392007179558280,,,,,,8,50,K,N,2023-01-03_14h55.48.523,Flanker,2022.2.4,None,
Przez najbliższe 5 minut proszę kolorować otrzymaną kolorwankę z mandalą. Naciśnij spację aby zacząć odmierzać czas,,<<<<<,0,1,1,0,,,,,0,3,3,11,,,,,,,,,,,,,,,,,,,,,911.251308741048,911.251308741048,left,0,0.4639519809279590,,,,,,8,50,K,N,2023-01-03_14h55.48.523,Flanker,2022.2.4,None,
Przez najbliższe 5 minut proszę kolorować otrzymaną kolorwankę z mandalą. Naciśnij spację aby zacząć odmierzać czas,,-->--,0,1,1,0,,,,,0,4,4,54,,,,,,,,,,,,,,,,,,,,,912.7274288591000,912.7274288591000,right,0,0.558825999032706,,,,,,8,50,K,N,2023-01-03_14h55.48.523,Flanker,2022.2.4,None,
Przez najbliższe 5 minut proszę kolorować otrzymaną kolorwankę z mandalą. Naciśnij spację aby zacząć odmierzać czas,,<<><<,0,1,1,0,,,,,0,5,5,24,,,,,,,,,,,,,,,,,,,,,914.3065424930540,914.3065424930540,right,0,0.7288640609476720,,,,,,8,50,K,N,2023-01-03_14h55.48.523,Flanker,2022.2.4,None,
Przez najbliższe 5 minut proszę kolorować otrzymaną kolorwankę z mandalą. Naciśnij spację aby zacząć odmierzać czas,,-->--,0,1,1,0,,,,,0,6,6,52,,,,,,,,,,,,,,,,,,,,,916.0493745710700,916.0493745710700,right,0,0.5046472110552710,,,,,,8,50,K,N,2023-01-03_14h55.48.523,Flanker,2022.2.4,None,
Przez najbliższe 5 minut proszę kolorować otrzymaną kolorwankę z mandalą. Naciśnij spację aby zacząć odmierzać czas,,<<><<,0,1,1,0,,,,,0,7,7,28,,,,,,,,,,,,,,,,,,,,,917.5700490240710,917.5700490240710,right,0,0.766007928061299,,,,,,8,50,K,N,2023-01-03_14h55.48.523,Flanker,2022.2.4,None,
Przez najbliższe 5 minut proszę kolorować otrzymaną kolorwankę z mandalą. Naciśnij spację aby zacząć odmierzać czas,,--<--,0,1,1,0,,,,,0,8,8,41,,,,,,,,,,,,,,,,,,,,,919.3388973260300,919.3388973260300,left,0,0.46518804505467400,,,,,,8,50,K,N,2023-01-03_14h55.48.523,Flanker,2022.2.4,None,
Przez najbliższe 5 minut proszę kolorować otrzymaną kolorwankę z mandalą. Naciśnij spację aby zacząć odmierzać czas,,--<--,0,1,1,0,,,,,0,9,9,48,,,,,,,,,,,,,,,,,,,,,920.8199262070700,920.8199262070700,left,0,0.44908036396373100,,,,,,8,50,K,N,2023-01-03_14h55.48.523,Flanker,2022.2.4,None,
Przez najbliższe 5 minut proszę kolorować otrzymaną kolorwankę z mandalą. Naciśnij spację aby zacząć odmierzać czas,,<<<<<,0,1,1,0,,,,,0,10,10,17,,,,,,,,,,,,,,,,,,,,,922.2836700050390,922.2836700050390,left,0,0.5084586050361400,,,,,,8,50,K,N,2023-01-03_14h55.48.523,Flanker,2022.2.4,None,
Przez najbliższe 5 minut proszę kolorować otrzymaną kolorwankę z mandalą. Naciśnij spację aby zacząć odmierzać czas,,--<--,0,1,1,0,,,,,0,11,11,43,,,,,,,,,,,,,,,,,,,,,923.7972028800290,923.7972028800290,left,0,0.4498621110105890,,,,,,8,50,K,N,2023-01-03_14h55.48.523,Flanker,2022.2.4,None,
Przez najbliższe 5 minut proszę kolorować otrzymaną kolorwankę z mandalą. Naciśnij spację aby zacząć odmierzać czas,,>>>>>,0,1,1,0,,,,,0,12,12,1,,,,,,,,,,,,,,,,,,,,,925.264363488066,925.264363488066,right,0,0.4666905029444020,,,,,,8,50,K,N,2023-01-03_14h55.48.523,Flanker,2022.2.4,None,
Przez najbliższe 5 minut proszę kolorować otrzymaną kolorwankę z mandalą. Naciśnij spację aby zacząć odmierzać czas,,-->--,0,1,1,0,,,,,0,13,13,59,,,,,,,,,,,,,,,,,,,,,926.7428215420810,926.7428215420810,right,0,0.5122813490452250,,,,,,8,50,K,N,2023-01-03_14h55.48.523,Flanker,2022.2.4,None,
Przez najbliższe 5 minut proszę kolorować otrzymaną kolorwankę z mandalą. Naciśnij spację aby zacząć odmierzać czas,,<<><<,0,1,1,0,,,,,0,14,14,22,,,,,,,,,,,,,,,,,,,,,928.2642609170870,928.2642609170870,right,0,0.6654868969926610,,,,,,8,50,K,N,2023-01-03_14h55.48.523,Flanker,2022.2.4,None,
Przez najbliższe 5 minut proszę kolorować otrzymaną kolorwankę z mandalą. Naciśnij spację aby zacząć odmierzać czas,,-->--,0,1,1,0,,,,,0,15,15,50,,,,,,,,,,,,,,,,,,,,,929.9337439601080,929.9337439601080,right,0,0.4561945829773320,,,,,,8,50,K,N,2023-01-03_14h55.48.523,Flanker,2022.2.4,None,
Przez najbliższe 5 minut proszę kolorować otrzymaną kolorwankę z mandalą. Naciśnij spację aby zacząć odmierzać czas,,--<--,0,1,1,0,,,,,0,16,16,42,,,,,,,,,,,,,,,,,,,,,931.4041222491070,931.4041222491070,left,0,0.4509278229670600,,,,,,8,50,K,N,2023-01-03_14h55.48.523,Flanker,2022.2.4,None,
Przez najbliższe 5 minut proszę kolorować otrzymaną kolorwankę z mandalą. Naciśnij spację aby zacząć odmierzać czas,,<<><<,0,1,1,0,,,,,0,17,17,23,,,,,,,,,,,,,,,,,,,,,932.8636340630470,932.8636340630470,right,0,0.9162744400091470,,,,,,8,50,K,N,2023-01-03_14h55.48.523,Flanker,2022.2.4,None,
Przez najbliższe 5 minut proszę kolorować otrzymaną kolorwankę z mandalą. Naciśnij spację aby zacząć odmierzać czas,,>><>>,0,1,1,0,,,,,0,18,18,30,,,,,,,,,,,,,,,,,,,,,934.785797894001,934.785797894001,left,0,0.8800340730231260,,,,,,8,50,K,N,2023-01-03_14h55.48.523,Flanker,2022.2.4,None,
Przez najbliższe 5 minut proszę kolorować otrzymaną kolorwankę z mandalą. Naciśnij spację aby zacząć odmierzać czas,,<<<<<,0,1,1,0,,,,,0,19,19,16,,,,,,,,,,,,,,,,,,,,,936.6814507660460,936.6814507660460,left,0,0.5164407719857990,,,,,,8,50,K,N,2023-01-03_14h55.48.523,Flanker,2022.2.4,None,
Przez najbliższe 5 minut proszę kolorować otrzymaną kolorwankę z mandalą. Naciśnij spację aby zacząć odmierzać czas,,-->--,0,1,1,0,,,,,0,20,20,53,,,,,,,,,,,,,,,,,,,,,938.2089032110530,938.2089032110530,right,0,0.39592893107328600,,,,,,8,50,K,N,2023-01-03_14h55.48.523,Flanker,2022.2.4,None,
Przez najbliższe 5 minut proszę kolorować otrzymaną kolorwankę z mandalą. Naciśnij spację aby zacząć odmierzać czas,,--<--,0,1,1,0,,,,,0,21,21,44,,,,,,,,,,,,,,,,,,,,,939.6259353720820,939.6259353720820,left,0,0.40393444593064500,,,,,,8,50,K,N,2023-01-03_14h55.48.523,Flanker,2022.2.4,None,
Przez najbliższe 5 minut proszę kolorować otrzymaną kolorwankę z mandalą. Naciśnij spację aby zacząć odmierzać czas,,<<><<,0,1,1,0,,,,,0,22,22,21,,,,,,,,,,,,,,,,,,,,,941.0416790191080,941.0416790191080,right,0,0.5619989560218530,,,,,,8,50,K,N,2023-01-03_14h55.48.523,Flanker,2022.2.4,None,
Przez najbliższe 5 minut proszę kolorować otrzymaną kolorwankę z mandalą. Naciśnij spację aby zacząć odmierzać czas,,<<<<<,0,1,1,0,,,,,0,23,23,12,,,,,,,,,,,,,,,,,,,,,942.6261057740780,942.6261057740780,left,0,0.43373280006926500,,,,,,8,50,K,N,2023-01-03_14h55.48.523,Flanker,2022.2.4,None,
Przez najbliższe 5 minut proszę kolorować otrzymaną kolorwankę z mandalą. Naciśnij spację aby zacząć odmierzać czas,,<<><<,0,1,1,0,,,,,0,24,24,27,,,,,,,,,,,,,,,,,,,,,944.0745251900520,944.0745251900520,right,0,0.5232370010344310,,,,,,8,50,K,N,2023-01-03_14h55.48.523,Flanker,2022.2.4,None,
Przez najbliższe 5 minut proszę kolorować otrzymaną kolorwankę z mandalą. Naciśnij spację aby zacząć odmierzać czas,,>><>>,0,1,1,0,,,,,0,25,25,35,,,,,,,,,,,,,,,,,,,,,945.6246078721020,945.6246078721020,left,0,0.6188580399611970,,,,,,8,50,K,N,2023-01-03_14h55.48.523,Flanker,2022.2.4,None,
Przez najbliższe 5 minut proszę kolorować otrzymaną kolorwankę z mandalą. Naciśnij spację aby zacząć odmierzać czas,,>><>>,0,1,1,0,,,,,0,26,26,39,,,,,,,,,,,,,,,,,,,,,947.2582684369990,947.2582684369990,left,0,0.5901825340697540,,,,,,8,50,K,N,2023-01-03_14h55.48.523,Flanker,2022.2.4,None,
Przez najbliższe 5 minut proszę kolorować otrzymaną kolorwankę z mandalą. Naciśnij spację aby zacząć odmierzać czas,,<<<<<,0,1,1,0,,,,,0,27,27,14,,,,,,,,,,,,,,,,,,,,,948.8496905860960,948.8496905860960,left,0,0.5032309769885620,,,,,,8,50,K,N,2023-01-03_14h55.48.523,Flanker,2022.2.4,None,
Przez najbliższe 5 minut proszę kolorować otrzymaną kolorwankę z mandalą. Naciśnij spację aby zacząć odmierzać czas,,>>>>> ,0,1,1,0,,,,,0,28,28,5,,,,,,,,,,,,,,,,,,,,,950.3620404161050,950.3620404161050,right,0,0.43272796203382300,,,,,,8,50,K,N,2023-01-03_14h55.48.523,Flanker,2022.2.4,None,
Przez najbliższe 5 minut proszę kolorować otrzymaną kolorwankę z mandalą. Naciśnij spację aby zacząć odmierzać czas,,<<<<<,0,1,1,0,,,,,0,29,29,15,,,,,,,,,,,,,,,,,,,,,951.8078859820960,951.8078859820960,left,0,0.42961431690491700,,,,,,8,50,K,N,2023-01-03_14h55.48.523,Flanker,2022.2.4,None,
Przez najbliższe 5 minut proszę kolorować otrzymaną kolorwankę z mandalą. Naciśnij spację aby zacząć odmierzać czas,,--<--,0,1,1,0,,,,,0,30,30,47,,,,,,,,,,,,,,,,,,,,,953.2503539090980,953.2503539090980,left,0,0.40310711006168300,,,,,,8,50,K,N,2023-01-03_14h55.48.523,Flanker,2022.2.4,None,
Przez najbliższe 5 minut proszę kolorować otrzymaną kolorwankę z mandalą. Naciśnij spację aby zacząć odmierzać czas,,>>>>>,0,1,1,0,,,,,0,31,31,6,,,,,,,,,,,,,,,,,,,,,954.663370185066,954.663370185066,right,0,0.4332523610210050,,,,,,8,50,K,N,2023-01-03_14h55.48.523,Flanker,2022.2.4,None,
Przez najbliższe 5 minut proszę kolorować otrzymaną kolorwankę z mandalą. Naciśnij spację aby zacząć odmierzać czas,,>><>>,0,1,1,0,,,,,0,32,32,37,,,,,,,,,,,,,,,,,,,,,956.1018385890640,956.1018385890640,left,0,0.5945302669424560,,,,,,8,50,K,N,2023-01-03_14h55.48.523,Flanker,2022.2.4,None,
Przez najbliższe 5 minut proszę kolorować otrzymaną kolorwankę z mandalą. Naciśnij spację aby zacząć odmierzać czas,,>>>>>,0,1,1,0,,,,,0,33,33,7,,,,,,,,,,,,,,,,,,,,,957.708828499075,957.708828499075,right,0,0.5834033439168710,,,,,,8,50,K,N,2023-01-03_14h55.48.523,Flanker,2022.2.4,None,
Przez najbliższe 5 minut proszę kolorować otrzymaną kolorwankę z mandalą. Naciśnij spację aby zacząć odmierzać czas,,-->--,0,1,1,0,,,,,0,34,34,51,,,,,,,,,,,,,,,,,,,,,959.3099813420560,959.3099813420560,right,0,0.5003975029103460,,,,,,8,50,K,N,2023-01-03_14h55.48.523,Flanker,2022.2.4,None,
Przez najbliższe 5 minut proszę kolorować otrzymaną kolorwankę z mandalą. Naciśnij spację aby zacząć odmierzać czas,,>><>>,0,1,1,0,,,,,0,35,35,33,,,,,,,,,,,,,,,,,,,,,960.8365815440190,960.8365815440190,left,0,0.5036635430296880,,,,,,8,50,K,N,2023-01-03_14h55.48.523,Flanker,2022.2.4,None,
Przez najbliższe 5 minut proszę kolorować otrzymaną kolorwankę z mandalą. Naciśnij spację aby zacząć odmierzać czas,,>><>>,0,1,1,0,,,,,0,36,36,34,,,,,,,,,,,,,,,,,,,,,962.3435578470820,962.3435578470820,left,0,0.6127935029799120,,,,,,8,50,K,N,2023-01-03_14h55.48.523,Flanker,2022.2.4,None,
Przez najbliższe 5 minut proszę kolorować otrzymaną kolorwankę z mandalą. Naciśnij spację aby zacząć odmierzać czas,,<<><<,0,1,1,0,,,,,0,37,37,20,,,,,,,,,,,,,,,,,,,,,963.9593182200330,963.9593182200330,right,0,0.6431227599969130,,,,,,8,50,K,N,2023-01-03_14h55.48.523,Flanker,2022.2.4,None,
Przez najbliższe 5 minut proszę kolorować otrzymaną kolorwankę z mandalą. Naciśnij spację aby zacząć odmierzać czas,,<<><<,0,1,1,0,,,,,0,38,38,29,,,,,,,,,,,,,,,,,,,,,965.6175419960640,965.6175419960640,right,0,0.7027355579193680,,,,,,8,50,K,N,2023-01-03_14h55.48.523,Flanker,2022.2.4,None,
Przez najbliższe 5 minut proszę kolorować otrzymaną kolorwankę z mandalą. Naciśnij spację aby zacząć odmierzać czas,,-->--,0,1,1,0,,,,,0,39,39,56,,,,,,,,,,,,,,,,,,,,,967.3300166201080,967.3300166201080,right,0,0.44519350200425800,,,,,,8,50,K,N,2023-01-03_14h55.48.523,Flanker,2022.2.4,None,
Przez najbliższe 5 minut proszę kolorować otrzymaną kolorwankę z mandalą. Naciśnij spację aby zacząć odmierzać czas,,>>>>>,0,1,1,0,,,,,0,40,40,9,,,,,,,,,,,,,,,,,,,,,968.7785328550960,968.7785328550960,right,0,0.39863321802113200,,,,,,8,50,K,N,2023-01-03_14h55.48.523,Flanker,2022.2.4,None,
Przez najbliższe 5 minut proszę kolorować otrzymaną kolorwankę z mandalą. Naciśnij spację aby zacząć odmierzać czas,,-->--,0,1,1,0,,,,,0,41,41,55,,,,,,,,,,,,,,,,,,,,,970.1825958749980,970.1825958749980,right,0,0.3705040999921040,,,,,,8,50,K,N,2023-01-03_14h55.48.523,Flanker,2022.2.4,None,
Przez najbliższe 5 minut proszę kolorować otrzymaną kolorwankę z mandalą. Naciśnij spację aby zacząć odmierzać czas,,<<><<,0,1,1,0,,,,,0,42,42,26,,,,,,,,,,,,,,,,,,,,,971.5724951560840,971.5724951560840,right,0,0.5377050889655950,,,,,,8,50,K,N,2023-01-03_14h55.48.523,Flanker,2022.2.4,None,
Przez najbliższe 5 minut proszę kolorować otrzymaną kolorwankę z mandalą. Naciśnij spację aby zacząć odmierzać czas,,-->--,0,1,1,0,,,,,0,43,43,57,,,,,,,,,,,,,,,,,,,,,973.1153699560090,973.1153699560090,right,0,0.43654190201778000,,,,,,8,50,K,N,2023-01-03_14h55.48.523,Flanker,2022.2.4,None,
Przez najbliższe 5 minut proszę kolorować otrzymaną kolorwankę z mandalą. Naciśnij spację aby zacząć odmierzać czas,,<<><<,0,1,1,0,,,,,0,44,44,25,,,,,,,,,,,,,,,,,,,,,974.5640030170330,974.5640030170330,right,0,0.5600608650129290,,,,,,8,50,K,N,2023-01-03_14h55.48.523,Flanker,2022.2.4,None,
Przez najbliższe 5 minut proszę kolorować otrzymaną kolorwankę z mandalą. Naciśnij spację aby zacząć odmierzać czas,,--<--,0,1,1,0,,,,,0,45,45,46,,,,,,,,,,,,,,,,,,,,,976.130400390015,976.130400390015,left,0,0.523319251020439,,,,,,8,50,K,N,2023-01-03_14h55.48.523,Flanker,2022.2.4,None,
Przez najbliższe 5 minut proszę kolorować otrzymaną kolorwankę z mandalą. Naciśnij spację aby zacząć odmierzać czas,,--<--,0,1,1,0,,,,,0,46,46,40,,,,,,,,,,,,,,,,,,,,,977.6592039210960,977.6592039210960,left,0,0.4127330459887160,,,,,,8,50,K,N,2023-01-03_14h55.48.523,Flanker,2022.2.4,None,
Przez najbliższe 5 minut proszę kolorować otrzymaną kolorwankę z mandalą. Naciśnij spację aby zacząć odmierzać czas,,>>>>>,0,1,1,0,,,,,0,47,47,2,,,,,,,,,,,,,,,,,,,,,979.0890015180920,979.0890015180920,right,0,0.4278209441108630,,,,,,8,50,K,N,2023-01-03_14h55.48.523,Flanker,2022.2.4,None,
Przez najbliższe 5 minut proszę kolorować otrzymaną kolorwankę z mandalą. Naciśnij spację aby zacząć odmierzać czas,,>><>>,0,1,1,0,,,,,0,48,48,32,,,,,,,,,,,,,,,,,,,,,980.5409251500390,980.5409251500390,left,0,0.6050160720478740,,,,,,8,50,K,N,2023-01-03_14h55.48.523,Flanker,2022.2.4,None,
Przez najbliższe 5 minut proszę kolorować otrzymaną kolorwankę z mandalą. Naciśnij spację aby zacząć odmierzać czas,,>>>>>,0,1,1,0,,,,,0,49,49,0,,,,,,,,,,,,,,,,,,,,,982.1576057440830,982.1576057440830,right,0,0.42124278098344800,,,,,,8,50,K,N,2023-01-03_14h55.48.523,Flanker,2022.2.4,None,
Przez najbliższe 5 minut proszę kolorować otrzymaną kolorwankę z mandalą. Naciśnij spację aby zacząć odmierzać czas,,>><>>,0,1,1,0,,,,,0,50,50,38,,,,,,,,,,,,,,,,,,,,,983.590592991095,983.590592991095,left,0,0.5354271379765120,,,,,,8,50,K,N,2023-01-03_14h55.48.523,Flanker,2022.2.4,None,
Przez najbliższe 5 minut proszę kolorować otrzymaną kolorwankę z mandalą. Naciśnij spację aby zacząć odmierzać czas,,>>>>>,0,1,1,0,,,,,0,51,51,3,,,,,,,,,,,,,,,,,,,,,985.1530554840570,985.1530554840570,right,0,0.35182567802257800,,,,,,8,50,K,N,2023-01-03_14h55.48.523,Flanker,2022.2.4,None,
Przez najbliższe 5 minut proszę kolorować otrzymaną kolorwankę z mandalą. Naciśnij spację aby zacząć odmierzać czas,,--<--,0,1,1,0,,,,,0,52,52,45,,,,,,,,,,,,,,,,,,,,,986.5161766550740,986.5161766550740,left,0,0.40265008609276300,,,,,,8,50,K,N,2023-01-03_14h55.48.523,Flanker,2022.2.4,None,
Przez najbliższe 5 minut proszę kolorować otrzymaną kolorwankę z mandalą. Naciśnij spację aby zacząć odmierzać czas,,>>>>>,0,1,1,0,,,,,0,53,53,4,,,,,,,,,,,,,,,,,,,,,987.9431477810720,987.9431477810720,right,0,0.4106868259841580,,,,,,8,50,K,N,2023-01-03_14h55.48.523,Flanker,2022.2.4,None,
Przez najbliższe 5 minut proszę kolorować otrzymaną kolorwankę z mandalą. Naciśnij spację aby zacząć odmierzać czas,,<<<<<,0,1,1,0,,,,,0,54,54,18,,,,,,,,,,,,,,,,,,,,,989.3580514800270,989.3580514800270,left,0,0.4066073369467630,,,,,,8,50,K,N,2023-01-03_14h55.48.523,Flanker,2022.2.4,None,
Przez najbliższe 5 minut proszę kolorować otrzymaną kolorwankę z mandalą. Naciśnij spację aby zacząć odmierzać czas,,>>>>>,0,1,1,0,,,,,0,55,55,8,,,,,,,,,,,,,,,,,,,,,990.7752575570490,990.7752575570490,right,0,0.5125204080250110,,,,,,8,50,K,N,2023-01-03_14h55.48.523,Flanker,2022.2.4,None,
Przez najbliższe 5 minut proszę kolorować otrzymaną kolorwankę z mandalą. Naciśnij spację aby zacząć odmierzać czas,,<<<<<,0,1,1,0,,,,,0,56,56,10,,,,,,,,,,,,,,,,,,,,,992.2947506600760,992.2947506600760,left,0,0.45214859500993000,,,,,,8,50,K,N,2023-01-03_14h55.48.523,Flanker,2022.2.4,None,
Przez najbliższe 5 minut proszę kolorować otrzymaną kolorwankę z mandalą. Naciśnij spację aby zacząć odmierzać czas,,>><>>,0,1,1,0,,,,,0,57,57,31,,,,,,,,,,,,,,,,,,,,,993.7513821760660,993.7513821760660,left,0,0.6612779540009800,,,,,,8,50,K,N,2023-01-03_14h55.48.523,Flanker,2022.2.4,None,
Przez najbliższe 5 minut proszę kolorować otrzymaną kolorwankę z mandalą. Naciśnij spację aby zacząć odmierzać czas,,<<<<<,0,1,1,0,,,,,0,58,58,13,,,,,,,,,,,,,,,,,,,,,995.4253195479980,995.4253195479980,left,0,0.43719220894854500,,,,,,8,50,K,N,2023-01-03_14h55.48.523,Flanker,2022.2.4,None,
Przez najbliższe 5 minut proszę kolorować otrzymaną kolorwankę z mandalą. Naciśnij spację aby zacząć odmierzać czas,,>><>>,0,1,1,0,,,,,0,59,59,36,,,,,,,,,,,,,,,,,,,,,996.8648566351040,996.8648566351040,left,0,0.6756311489734800,,,,,,8,50,K,N,2023-01-03_14h55.48.523,Flanker,2022.2.4,None,
Przez najbliższe 5 minut proszę kolorować otrzymaną kolorwankę z mandalą. Naciśnij spację aby zacząć odmierzać czas,,,0,1,1,0,,,,,,,,,,,,,,,,,,,,,,,,,,,,,,,,,,,,,,,8,50,K,N,2023-01-03_14h55.48.523,Flanker,2022.2.4,None,
,,,,,,,,,,,,,,,,,,,,,,,,,,,,,,,,,,,,,,,,,998.5570808140330,998.5570808140330,space,3.850320720928720,8,50,K,N,2023-01-03_14h55.48.523,Flanker,2022.2.4,None,