kolorowanka,Example,Stimuli,proby.thisRepN,proby.thisTrialN,proby.thisN,proby.thisIndex,zapoznanie.thisRepN,zapoznanie.thisTrialN,zapoznanie.thisN,zapoznanie.thisIndex,Warunki.thisRepN,Warunki.thisTrialN,Warunki.thisN,Warunki.thisIndex,Intro.started,Intro_resp.started,Intro_resp.keys,Intro_resp.rt,Kolorowanie1.started,starttt.started,starttt.keys,starttt.rt,koloruj.started,Instruction.started,key_resp.started,key_resp.keys,key_resp.rt,Wyjasnienie.started,text.started,odp_przyk.started,odp_przyk.keys,odp_przyk.corr,odp_przyk.rt,zapo.started,Zadanie.started,Odp.started,Odp.keys,Odp.corr,Odp.rt,zapo.stopped,thanks.started,KONIEC.started,KONIEC.keys,KONIEC.rt,participant,Wiek (w latach),Płeć (K/M),Entropia,date,expName,psychopyVersion,frameRate,
,,,,,,,,,,,,,,,21.756707133026800,23.742359540076000,space,14.914895515074000,,,,,,,,,,,,,,,,,,,,,,,,,,,9,20,M,N,2023-01-03_15h14.43.621,Flanker,2022.2.4,None,
Przez najbliższe 5 minut proszę kolorować otrzymaną pustą kartkę. Naciśnij spację aby zacząć odmierzać czas,-->--,,0,0,0,1,0,0,0,5,,,,,,,,,38.70516143704300,39.66897143202370,space,7.513856190955270,47.21259908005600,347.2089609269750,349.19252197106800,space,17.930576774990200,367.15573532600000,376.15136277803700,376.15136277803700,right,0,1.1381004290888100,,,,,,,,,,,,9,20,M,N,2023-01-03_15h14.43.621,Flanker,2022.2.4,None,
Przez najbliższe 5 minut proszę kolorować otrzymaną pustą kartkę. Naciśnij spację aby zacząć odmierzać czas,--<--,,0,0,0,1,0,1,1,4,,,,,,,,,,,,,,,,,,,378.3137561810440,378.3137561810440,left,0,0.7094712830148640,,,,,,,,,,,,9,20,M,N,2023-01-03_15h14.43.621,Flanker,2022.2.4,None,
Przez najbliższe 5 minut proszę kolorować otrzymaną pustą kartkę. Naciśnij spację aby zacząć odmierzać czas,<<><<,,0,0,0,1,0,2,2,2,,,,,,,,,,,,,,,,,,,380.03019014105700,380.03019014105700,right,0,0.9218844249844550,,,,,,,,,,,,9,20,M,N,2023-01-03_15h14.43.621,Flanker,2022.2.4,None,
Przez najbliższe 5 minut proszę kolorować otrzymaną pustą kartkę. Naciśnij spację aby zacząć odmierzać czas,>><>>,,0,0,0,1,0,3,3,3,,,,,,,,,,,,,,,,,,,381.9689252510430,381.9689252510430,left,0,1.2020148219307900,,,,,,,,,,,,9,20,M,N,2023-01-03_15h14.43.621,Flanker,2022.2.4,None,
Przez najbliższe 5 minut proszę kolorować otrzymaną pustą kartkę. Naciśnij spację aby zacząć odmierzać czas,>>>>>,,0,0,0,1,0,4,4,1,,,,,,,,,,,,,,,,,,,384.18589512002700,384.18589512002700,right,0,0.5510018259519710,,,,,,,,,,,,9,20,M,N,2023-01-03_15h14.43.621,Flanker,2022.2.4,None,
Przez najbliższe 5 minut proszę kolorować otrzymaną pustą kartkę. Naciśnij spację aby zacząć odmierzać czas,<<<<<,,0,0,0,1,0,5,5,0,,,,,,,,,,,,,,,,,,,385.75347615999600,385.75347615999600,left,0,0.3964208660181610,,,,,,,,,,,,9,20,M,N,2023-01-03_15h14.43.621,Flanker,2022.2.4,None,
Przez najbliższe 5 minut proszę kolorować otrzymaną pustą kartkę. Naciśnij spację aby zacząć odmierzać czas,,--<--,0,0,0,1,,,,,0,0,0,45,,,,,,,,,,,,,,,,,,,,387.1609226790020,395.1641082270070,395.1641082270070,left,0,0.5641018780879680,394.17014522396500,,,,,9,20,M,N,2023-01-03_15h14.43.621,Flanker,2022.2.4,None,
Przez najbliższe 5 minut proszę kolorować otrzymaną pustą kartkę. Naciśnij spację aby zacząć odmierzać czas,,>><>>,0,0,0,1,,,,,0,1,1,35,,,,,,,,,,,,,,,,,,,,,396.76416534697600,396.76416534697600,left,0,0.8111145069124180,,,,,,9,20,M,N,2023-01-03_15h14.43.621,Flanker,2022.2.4,None,
Przez najbliższe 5 minut proszę kolorować otrzymaną pustą kartkę. Naciśnij spację aby zacząć odmierzać czas,,-->--,0,0,0,1,,,,,0,2,2,55,,,,,,,,,,,,,,,,,,,,,398.5882935980340,398.5882935980340,right,0,0.8829461690038440,,,,,,9,20,M,N,2023-01-03_15h14.43.621,Flanker,2022.2.4,None,
Przez najbliższe 5 minut proszę kolorować otrzymaną pustą kartkę. Naciśnij spację aby zacząć odmierzać czas,,>><>>,0,0,0,1,,,,,0,3,3,32,,,,,,,,,,,,,,,,,,,,,400.496506361058,400.496506361058,left,0,0.4767668070271610,,,,,,9,20,M,N,2023-01-03_15h14.43.621,Flanker,2022.2.4,None,
Przez najbliższe 5 minut proszę kolorować otrzymaną pustą kartkę. Naciśnij spację aby zacząć odmierzać czas,,--<--,0,0,0,1,,,,,0,4,4,44,,,,,,,,,,,,,,,,,,,,,401.976193316048,401.976193316048,left,0,0.40790078102145300,,,,,,9,20,M,N,2023-01-03_15h14.43.621,Flanker,2022.2.4,None,
Przez najbliższe 5 minut proszę kolorować otrzymaną pustą kartkę. Naciśnij spację aby zacząć odmierzać czas,,<<<<<,0,0,0,1,,,,,0,5,5,15,,,,,,,,,,,,,,,,,,,,,403.40319609304400,403.40319609304400,left,0,0.48194205900654200,,,,,,9,20,M,N,2023-01-03_15h14.43.621,Flanker,2022.2.4,None,
Przez najbliższe 5 minut proszę kolorować otrzymaną pustą kartkę. Naciśnij spację aby zacząć odmierzać czas,,<<><<,0,0,0,1,,,,,0,6,6,22,,,,,,,,,,,,,,,,,,,,,404.9040047660240,404.9040047660240,right,0,0.5179562600096690,,,,,,9,20,M,N,2023-01-03_15h14.43.621,Flanker,2022.2.4,None,
Przez najbliższe 5 minut proszę kolorować otrzymaną pustą kartkę. Naciśnij spację aby zacząć odmierzać czas,,<<><<,0,0,0,1,,,,,0,7,7,25,,,,,,,,,,,,,,,,,,,,,406.4439212559960,406.4439212559960,right,0,0.5602153309155260,,,,,,9,20,M,N,2023-01-03_15h14.43.621,Flanker,2022.2.4,None,
Przez najbliższe 5 minut proszę kolorować otrzymaną pustą kartkę. Naciśnij spację aby zacząć odmierzać czas,,-->--,0,0,0,1,,,,,0,8,8,59,,,,,,,,,,,,,,,,,,,,,408.0209537210180,408.0209537210180,right,0,0.4398900920059530,,,,,,9,20,M,N,2023-01-03_15h14.43.621,Flanker,2022.2.4,None,
Przez najbliższe 5 minut proszę kolorować otrzymaną pustą kartkę. Naciśnij spację aby zacząć odmierzać czas,,<<><<,0,0,0,1,,,,,0,9,9,24,,,,,,,,,,,,,,,,,,,,,409.46756903396500,409.46756903396500,right,0,0.564503087894991,,,,,,9,20,M,N,2023-01-03_15h14.43.621,Flanker,2022.2.4,None,
Przez najbliższe 5 minut proszę kolorować otrzymaną pustą kartkę. Naciśnij spację aby zacząć odmierzać czas,,<<><<,0,0,0,1,,,,,0,10,10,29,,,,,,,,,,,,,,,,,,,,,411.0309893799710,411.0309893799710,right,0,0.5761862850049510,,,,,,9,20,M,N,2023-01-03_15h14.43.621,Flanker,2022.2.4,None,
Przez najbliższe 5 minut proszę kolorować otrzymaną pustą kartkę. Naciśnij spację aby zacząć odmierzać czas,,--<--,0,0,0,1,,,,,0,11,11,40,,,,,,,,,,,,,,,,,,,,,412.61969288706300,412.61969288706300,left,0,0.5522798920283090,,,,,,9,20,M,N,2023-01-03_15h14.43.621,Flanker,2022.2.4,None,
Przez najbliższe 5 minut proszę kolorować otrzymaną pustą kartkę. Naciśnij spację aby zacząć odmierzać czas,,--<--,0,0,0,1,,,,,0,12,12,43,,,,,,,,,,,,,,,,,,,,,414.1797131790080,414.1797131790080,left,0,0.4802264530444520,,,,,,9,20,M,N,2023-01-03_15h14.43.621,Flanker,2022.2.4,None,
Przez najbliższe 5 minut proszę kolorować otrzymaną pustą kartkę. Naciśnij spację aby zacząć odmierzać czas,,-->--,0,0,0,1,,,,,0,13,13,52,,,,,,,,,,,,,,,,,,,,,415.67249198805100,415.67249198805100,right,0,0.4793799229664730,,,,,,9,20,M,N,2023-01-03_15h14.43.621,Flanker,2022.2.4,None,
Przez najbliższe 5 minut proszę kolorować otrzymaną pustą kartkę. Naciśnij spację aby zacząć odmierzać czas,,>>>>>,0,0,0,1,,,,,0,14,14,9,,,,,,,,,,,,,,,,,,,,,417.15198679396400,417.15198679396400,right,0,0.9498161509400230,,,,,,9,20,M,N,2023-01-03_15h14.43.621,Flanker,2022.2.4,None,
Przez najbliższe 5 minut proszę kolorować otrzymaną pustą kartkę. Naciśnij spację aby zacząć odmierzać czas,,>>>>>,0,0,0,1,,,,,0,15,15,4,,,,,,,,,,,,,,,,,,,,,419.11849544697900,419.11849544697900,right,0,0.7613748799776660,,,,,,9,20,M,N,2023-01-03_15h14.43.621,Flanker,2022.2.4,None,
Przez najbliższe 5 minut proszę kolorować otrzymaną pustą kartkę. Naciśnij spację aby zacząć odmierzać czas,,--<--,0,0,0,1,,,,,0,16,16,42,,,,,,,,,,,,,,,,,,,,,420.8898090439620,420.8898090439620,left,0,0.5180012490600350,,,,,,9,20,M,N,2023-01-03_15h14.43.621,Flanker,2022.2.4,None,
Przez najbliższe 5 minut proszę kolorować otrzymaną pustą kartkę. Naciśnij spację aby zacząć odmierzać czas,,>><>>,0,0,0,1,,,,,0,17,17,37,,,,,,,,,,,,,,,,,,,,,422.41593054903200,422.41593054903200,left,0,0.6959503820398820,,,,,,9,20,M,N,2023-01-03_15h14.43.621,Flanker,2022.2.4,None,
Przez najbliższe 5 minut proszę kolorować otrzymaną pustą kartkę. Naciśnij spację aby zacząć odmierzać czas,,<<<<<,0,0,0,1,,,,,0,18,18,14,,,,,,,,,,,,,,,,,,,,,424.1234634090220,424.1234634090220,left,0,0.48314619495067700,,,,,,9,20,M,N,2023-01-03_15h14.43.621,Flanker,2022.2.4,None,
Przez najbliższe 5 minut proszę kolorować otrzymaną pustą kartkę. Naciśnij spację aby zacząć odmierzać czas,,<<<<<,0,0,0,1,,,,,0,19,19,17,,,,,,,,,,,,,,,,,,,,,425.6322548199680,425.6322548199680,left,0,0.5345935489749540,,,,,,9,20,M,N,2023-01-03_15h14.43.621,Flanker,2022.2.4,None,
Przez najbliższe 5 minut proszę kolorować otrzymaną pustą kartkę. Naciśnij spację aby zacząć odmierzać czas,,<<<<<,0,0,0,1,,,,,0,20,20,19,,,,,,,,,,,,,,,,,,,,,427.1754950369940,427.1754950369940,left,0,0.4041145339142530,,,,,,9,20,M,N,2023-01-03_15h14.43.621,Flanker,2022.2.4,None,
Przez najbliższe 5 minut proszę kolorować otrzymaną pustą kartkę. Naciśnij spację aby zacząć odmierzać czas,,<<><<,0,0,0,1,,,,,0,21,21,21,,,,,,,,,,,,,,,,,,,,,428.58659040997700,428.58659040997700,right,0,0.5171227440005170,,,,,,9,20,M,N,2023-01-03_15h14.43.621,Flanker,2022.2.4,None,
Przez najbliższe 5 minut proszę kolorować otrzymaną pustą kartkę. Naciśnij spację aby zacząć odmierzać czas,,>><>>,0,0,0,1,,,,,0,22,22,31,,,,,,,,,,,,,,,,,,,,,430.124489378999,430.124489378999,left,0,0.4860020480118690,,,,,,9,20,M,N,2023-01-03_15h14.43.621,Flanker,2022.2.4,None,
Przez najbliższe 5 minut proszę kolorować otrzymaną pustą kartkę. Naciśnij spację aby zacząć odmierzać czas,,>>>>>,0,0,0,1,,,,,0,23,23,3,,,,,,,,,,,,,,,,,,,,,431.61574779707000,431.61574779707000,right,0,0.45676445902790900,,,,,,9,20,M,N,2023-01-03_15h14.43.621,Flanker,2022.2.4,None,
Przez najbliższe 5 minut proszę kolorować otrzymaną pustą kartkę. Naciśnij spację aby zacząć odmierzać czas,,<<<<<,0,0,0,1,,,,,0,24,24,10,,,,,,,,,,,,,,,,,,,,,433.0932812540560,433.0932812540560,left,0,0.3722352220211180,,,,,,9,20,M,N,2023-01-03_15h14.43.621,Flanker,2022.2.4,None,
Przez najbliższe 5 minut proszę kolorować otrzymaną pustą kartkę. Naciśnij spację aby zacząć odmierzać czas,,<<<<<,0,0,0,1,,,,,0,25,25,16,,,,,,,,,,,,,,,,,,,,,434.4682124410760,434.4682124410760,left,0,0.40331708604935600,,,,,,9,20,M,N,2023-01-03_15h14.43.621,Flanker,2022.2.4,None,
Przez najbliższe 5 minut proszę kolorować otrzymaną pustą kartkę. Naciśnij spację aby zacząć odmierzać czas,,<<><<,0,0,0,1,,,,,0,26,26,20,,,,,,,,,,,,,,,,,,,,,435.8916914690050,435.8916914690050,right,0,0.5387687420006840,,,,,,9,20,M,N,2023-01-03_15h14.43.621,Flanker,2022.2.4,None,
Przez najbliższe 5 minut proszę kolorować otrzymaną pustą kartkę. Naciśnij spację aby zacząć odmierzać czas,,>><>>,0,0,0,1,,,,,0,27,27,34,,,,,,,,,,,,,,,,,,,,,437.45223315700400,437.45223315700400,left,0,0.49129833094775700,,,,,,9,20,M,N,2023-01-03_15h14.43.621,Flanker,2022.2.4,None,
Przez najbliższe 5 minut proszę kolorować otrzymaną pustą kartkę. Naciśnij spację aby zacząć odmierzać czas,,-->--,0,0,0,1,,,,,0,28,28,51,,,,,,,,,,,,,,,,,,,,,438.95182029902900,438.95182029902900,right,0,0.4696574960835280,,,,,,9,20,M,N,2023-01-03_15h14.43.621,Flanker,2022.2.4,None,
Przez najbliższe 5 minut proszę kolorować otrzymaną pustą kartkę. Naciśnij spację aby zacząć odmierzać czas,,>>>>>,0,0,0,1,,,,,0,29,29,7,,,,,,,,,,,,,,,,,,,,,440.43048500607300,440.43048500607300,right,0,0.40698128507938200,,,,,,9,20,M,N,2023-01-03_15h14.43.621,Flanker,2022.2.4,None,
Przez najbliższe 5 minut proszę kolorować otrzymaną pustą kartkę. Naciśnij spację aby zacząć odmierzać czas,,>>>>>,0,0,0,1,,,,,0,30,30,0,,,,,,,,,,,,,,,,,,,,,441.84243030601600,441.84243030601600,right,0,0.3849138009827580,,,,,,9,20,M,N,2023-01-03_15h14.43.621,Flanker,2022.2.4,None,
Przez najbliższe 5 minut proszę kolorować otrzymaną pustą kartkę. Naciśnij spację aby zacząć odmierzać czas,,-->--,0,0,0,1,,,,,0,31,31,57,,,,,,,,,,,,,,,,,,,,,443.23387903906400,443.23387903906400,right,0,0.4954634050372990,,,,,,9,20,M,N,2023-01-03_15h14.43.621,Flanker,2022.2.4,None,
Przez najbliższe 5 minut proszę kolorować otrzymaną pustą kartkę. Naciśnij spację aby zacząć odmierzać czas,,>><>>,0,0,0,1,,,,,0,32,32,39,,,,,,,,,,,,,,,,,,,,,444.74380308098600,444.74380308098600,left,0,0.4255533239338550,,,,,,9,20,M,N,2023-01-03_15h14.43.621,Flanker,2022.2.4,None,
Przez najbliższe 5 minut proszę kolorować otrzymaną pustą kartkę. Naciśnij spację aby zacząć odmierzać czas,,--<--,0,0,0,1,,,,,0,33,33,41,,,,,,,,,,,,,,,,,,,,,446.1860768200130,446.1860768200130,left,0,0.38729607802815700,,,,,,9,20,M,N,2023-01-03_15h14.43.621,Flanker,2022.2.4,None,
Przez najbliższe 5 minut proszę kolorować otrzymaną pustą kartkę. Naciśnij spację aby zacząć odmierzać czas,,--<--,0,0,0,1,,,,,0,34,34,47,,,,,,,,,,,,,,,,,,,,,447.58855418802700,447.58855418802700,left,0,0.3606651258887720,,,,,,9,20,M,N,2023-01-03_15h14.43.621,Flanker,2022.2.4,None,
Przez najbliższe 5 minut proszę kolorować otrzymaną pustą kartkę. Naciśnij spację aby zacząć odmierzać czas,,>><>>,0,0,0,1,,,,,0,35,35,33,,,,,,,,,,,,,,,,,,,,,448.96781727601800,448.96781727601800,left,0,0.5855114880250770,,,,,,9,20,M,N,2023-01-03_15h14.43.621,Flanker,2022.2.4,None,
Przez najbliższe 5 minut proszę kolorować otrzymaną pustą kartkę. Naciśnij spację aby zacząć odmierzać czas,,<<><<,0,0,0,1,,,,,0,36,36,28,,,,,,,,,,,,,,,,,,,,,450.56498276803200,450.56498276803200,right,0,0.6342353759100660,,,,,,9,20,M,N,2023-01-03_15h14.43.621,Flanker,2022.2.4,None,
Przez najbliższe 5 minut proszę kolorować otrzymaną pustą kartkę. Naciśnij spację aby zacząć odmierzać czas,,<<><<,0,0,0,1,,,,,0,37,37,23,,,,,,,,,,,,,,,,,,,,,452.2036408330310,452.2036408330310,right,0,0.5215060729533430,,,,,,9,20,M,N,2023-01-03_15h14.43.621,Flanker,2022.2.4,None,
Przez najbliższe 5 minut proszę kolorować otrzymaną pustą kartkę. Naciśnij spację aby zacząć odmierzać czas,,<<<<<,0,0,0,1,,,,,0,38,38,13,,,,,,,,,,,,,,,,,,,,,453.73212127701800,453.73212127701800,left,0,0.4000386300031100,,,,,,9,20,M,N,2023-01-03_15h14.43.621,Flanker,2022.2.4,None,
Przez najbliższe 5 minut proszę kolorować otrzymaną pustą kartkę. Naciśnij spację aby zacząć odmierzać czas,,-->--,0,0,0,1,,,,,0,39,39,53,,,,,,,,,,,,,,,,,,,,,455.14042670698800,455.14042670698800,right,0,0.379689902998507,,,,,,9,20,M,N,2023-01-03_15h14.43.621,Flanker,2022.2.4,None,
Przez najbliższe 5 minut proszę kolorować otrzymaną pustą kartkę. Naciśnij spację aby zacząć odmierzać czas,,--<--,0,0,0,1,,,,,0,40,40,46,,,,,,,,,,,,,,,,,,,,,456.5238647069780,456.5238647069780,left,0,0.3653149220626800,,,,,,9,20,M,N,2023-01-03_15h14.43.621,Flanker,2022.2.4,None,
Przez najbliższe 5 minut proszę kolorować otrzymaną pustą kartkę. Naciśnij spację aby zacząć odmierzać czas,,<<><<,0,0,0,1,,,,,0,41,41,27,,,,,,,,,,,,,,,,,,,,,457.9021385459930,457.9021385459930,right,0,0.5198028209852060,,,,,,9,20,M,N,2023-01-03_15h14.43.621,Flanker,2022.2.4,None,
Przez najbliższe 5 minut proszę kolorować otrzymaną pustą kartkę. Naciśnij spację aby zacząć odmierzać czas,,-->--,0,0,0,1,,,,,0,42,42,50,,,,,,,,,,,,,,,,,,,,,459.4352997940730,459.4352997940730,right,0,0.4076997209340330,,,,,,9,20,M,N,2023-01-03_15h14.43.621,Flanker,2022.2.4,None,
Przez najbliższe 5 minut proszę kolorować otrzymaną pustą kartkę. Naciśnij spację aby zacząć odmierzać czas,,<<<<<,0,0,0,1,,,,,0,43,43,11,,,,,,,,,,,,,,,,,,,,,460.8476832610320,460.8476832610320,left,0,0.3984469330171120,,,,,,9,20,M,N,2023-01-03_15h14.43.621,Flanker,2022.2.4,None,
Przez najbliższe 5 minut proszę kolorować otrzymaną pustą kartkę. Naciśnij spację aby zacząć odmierzać czas,,>>>>> ,0,0,0,1,,,,,0,44,44,5,,,,,,,,,,,,,,,,,,,,,462.2650849639900,462.2650849639900,right,0,0.4429553470108660,,,,,,9,20,M,N,2023-01-03_15h14.43.621,Flanker,2022.2.4,None,
Przez najbliższe 5 minut proszę kolorować otrzymaną pustą kartkę. Naciśnij spację aby zacząć odmierzać czas,,>>>>>,0,0,0,1,,,,,0,45,45,1,,,,,,,,,,,,,,,,,,,,,463.70645245397500,463.70645245397500,right,0,0.35258011403493600,,,,,,9,20,M,N,2023-01-03_15h14.43.621,Flanker,2022.2.4,None,
Przez najbliższe 5 minut proszę kolorować otrzymaną pustą kartkę. Naciśnij spację aby zacząć odmierzać czas,,>>>>>,0,0,0,1,,,,,0,46,46,6,,,,,,,,,,,,,,,,,,,,,465.0688598230480,465.0688598230480,right,0,0.32009893807116900,,,,,,9,20,M,N,2023-01-03_15h14.43.621,Flanker,2022.2.4,None,
Przez najbliższe 5 minut proszę kolorować otrzymaną pustą kartkę. Naciśnij spację aby zacząć odmierzać czas,,<<<<<,0,0,0,1,,,,,0,47,47,12,,,,,,,,,,,,,,,,,,,,,466.404087368981,466.404087368981,left,0,0.39985407004132900,,,,,,9,20,M,N,2023-01-03_15h14.43.621,Flanker,2022.2.4,None,
Przez najbliższe 5 minut proszę kolorować otrzymaną pustą kartkę. Naciśnij spację aby zacząć odmierzać czas,,-->--,0,0,0,1,,,,,0,48,48,54,,,,,,,,,,,,,,,,,,,,,467.8072432510090,467.8072432510090,right,0,0.3576923020882530,,,,,,9,20,M,N,2023-01-03_15h14.43.621,Flanker,2022.2.4,None,
Przez najbliższe 5 minut proszę kolorować otrzymaną pustą kartkę. Naciśnij spację aby zacząć odmierzać czas,,>><>>,0,0,0,1,,,,,0,49,49,38,,,,,,,,,,,,,,,,,,,,,469.17216998001100,469.17216998001100,left,0,0.4616794299799950,,,,,,9,20,M,N,2023-01-03_15h14.43.621,Flanker,2022.2.4,None,
Przez najbliższe 5 minut proszę kolorować otrzymaną pustą kartkę. Naciśnij spację aby zacząć odmierzać czas,,--<--,0,0,0,1,,,,,0,50,50,49,,,,,,,,,,,,,,,,,,,,,470.6456051720310,470.6456051720310,left,0,0.3863138019805770,,,,,,9,20,M,N,2023-01-03_15h14.43.621,Flanker,2022.2.4,None,
Przez najbliższe 5 minut proszę kolorować otrzymaną pustą kartkę. Naciśnij spację aby zacząć odmierzać czas,,<<<<<,0,0,0,1,,,,,0,51,51,18,,,,,,,,,,,,,,,,,,,,,472.03987806802600,472.03987806802600,left,0,0.4239190809894350,,,,,,9,20,M,N,2023-01-03_15h14.43.621,Flanker,2022.2.4,None,
Przez najbliższe 5 minut proszę kolorować otrzymaną pustą kartkę. Naciśnij spację aby zacząć odmierzać czas,,--<--,0,0,0,1,,,,,0,52,52,48,,,,,,,,,,,,,,,,,,,,,473.4733508870700,473.4733508870700,left,0,0.36045619600918100,,,,,,9,20,M,N,2023-01-03_15h14.43.621,Flanker,2022.2.4,None,
Przez najbliższe 5 minut proszę kolorować otrzymaną pustą kartkę. Naciśnij spację aby zacząć odmierzać czas,,>>>>>,0,0,0,1,,,,,0,53,53,2,,,,,,,,,,,,,,,,,,,,,474.8506652240180,474.8506652240180,right,0,0.4111743470421060,,,,,,9,20,M,N,2023-01-03_15h14.43.621,Flanker,2022.2.4,None,
Przez najbliższe 5 minut proszę kolorować otrzymaną pustą kartkę. Naciśnij spację aby zacząć odmierzać czas,,<<><<,0,0,0,1,,,,,0,54,54,26,,,,,,,,,,,,,,,,,,,,,476.26838480797600,476.26838480797600,left,0,0.3774400670081380,,,,,,9,20,M,N,2023-01-03_15h14.43.621,Flanker,2022.2.4,None,
Przez najbliższe 5 minut proszę kolorować otrzymaną pustą kartkę. Naciśnij spację aby zacząć odmierzać czas,,-->--,0,0,0,1,,,,,0,55,55,58,,,,,,,,,,,,,,,,,,,,,477.6565170419640,477.6565170419640,right,0,0.4212047739420090,,,,,,9,20,M,N,2023-01-03_15h14.43.621,Flanker,2022.2.4,None,
Przez najbliższe 5 minut proszę kolorować otrzymaną pustą kartkę. Naciśnij spację aby zacząć odmierzać czas,,>>>>>,0,0,0,1,,,,,0,56,56,8,,,,,,,,,,,,,,,,,,,,,479.0811682649660,479.0811682649660,right,0,0.4634623849997300,,,,,,9,20,M,N,2023-01-03_15h14.43.621,Flanker,2022.2.4,None,
Przez najbliższe 5 minut proszę kolorować otrzymaną pustą kartkę. Naciśnij spację aby zacząć odmierzać czas,,>><>>,0,0,0,1,,,,,0,57,57,36,,,,,,,,,,,,,,,,,,,,,480.56327200098900,480.56327200098900,left,0,0.4294003740651530,,,,,,9,20,M,N,2023-01-03_15h14.43.621,Flanker,2022.2.4,None,
Przez najbliższe 5 minut proszę kolorować otrzymaną pustą kartkę. Naciśnij spację aby zacząć odmierzać czas,,-->--,0,0,0,1,,,,,0,58,58,56,,,,,,,,,,,,,,,,,,,,,482.0013063029620,482.0013063029620,right,0,0.42132966103963600,,,,,,9,20,M,N,2023-01-03_15h14.43.621,Flanker,2022.2.4,None,
Przez najbliższe 5 minut proszę kolorować otrzymaną pustą kartkę. Naciśnij spację aby zacząć odmierzać czas,,>><>>,0,0,0,1,,,,,0,59,59,30,,,,,,,,,,,,,,,,,,,,,483.4305744000010,483.4305744000010,left,0,0.45608567411545700,,,,,,9,20,M,N,2023-01-03_15h14.43.621,Flanker,2022.2.4,None,
Przez najbliższe 5 minut proszę kolorować otrzymaną pustą kartkę. Naciśnij spację aby zacząć odmierzać czas,,,0,0,0,1,,,,,,,,,,,,,,,,,,,,,,,,,,,,,,,,,,,,,,,9,20,M,N,2023-01-03_15h14.43.621,Flanker,2022.2.4,None,
Przez najbliższe 5 minut proszę kolorować otrzymaną kolorwankę z mandalą. Naciśnij spację aby zacząć odmierzać czas,>>>>>,,0,1,1,0,0,0,0,1,,,,,,,,,483.93619717797300,484.9022450069900,space,6.947310322895650,491.87762436899400,791.8762243259700,793.8562959900590,space,8.23930710006971,802.1202660159910,811.1108566949840,811.1108566949840,right,0,0.786967369960621,,,,,,,,,,,,9,20,M,N,2023-01-03_15h14.43.621,Flanker,2022.2.4,None,
Przez najbliższe 5 minut proszę kolorować otrzymaną kolorwankę z mandalą. Naciśnij spację aby zacząć odmierzać czas,<<<<<,,0,1,1,0,0,1,1,0,,,,,,,,,,,,,,,,,,,812.9019366729770,812.9019366729770,left,0,0.4286251210141930,,,,,,,,,,,,9,20,M,N,2023-01-03_15h14.43.621,Flanker,2022.2.4,None,
Przez najbliższe 5 minut proszę kolorować otrzymaną kolorwankę z mandalą. Naciśnij spację aby zacząć odmierzać czas,-->--,,0,1,1,0,0,2,2,5,,,,,,,,,,,,,,,,,,,814.3347603459840,814.3347603459840,right,0,0.4365736689651390,,,,,,,,,,,,9,20,M,N,2023-01-03_15h14.43.621,Flanker,2022.2.4,None,
Przez najbliższe 5 minut proszę kolorować otrzymaną kolorwankę z mandalą. Naciśnij spację aby zacząć odmierzać czas,--<--,,0,1,1,0,0,3,3,4,,,,,,,,,,,,,,,,,,,815.7809997750450,815.7809997750450,left,0,0.4684027680195870,,,,,,,,,,,,9,20,M,N,2023-01-03_15h14.43.621,Flanker,2022.2.4,None,
Przez najbliższe 5 minut proszę kolorować otrzymaną kolorwankę z mandalą. Naciśnij spację aby zacząć odmierzać czas,>><>>,,0,1,1,0,0,4,4,3,,,,,,,,,,,,,,,,,,,817.2611142890530,817.2611142890530,left,0,0.5844043570104990,,,,,,,,,,,,9,20,M,N,2023-01-03_15h14.43.621,Flanker,2022.2.4,None,
Przez najbliższe 5 minut proszę kolorować otrzymaną kolorwankę z mandalą. Naciśnij spację aby zacząć odmierzać czas,<<><<,,0,1,1,0,0,5,5,2,,,,,,,,,,,,,,,,,,,818.8520201640200,818.8520201640200,right,0,0.4852945919847120,,,,,,,,,,,,9,20,M,N,2023-01-03_15h14.43.621,Flanker,2022.2.4,None,
Przez najbliższe 5 minut proszę kolorować otrzymaną kolorwankę z mandalą. Naciśnij spację aby zacząć odmierzać czas,,<<><<,0,1,1,0,,,,,0,0,0,25,,,,,,,,,,,,,,,,,,,,820.3561890230050,828.3557165929820,828.3557165929820,right,0,0.571677247993648,827.3724116169620,,,,,9,20,M,N,2023-01-03_15h14.43.621,Flanker,2022.2.4,None,
Przez najbliższe 5 minut proszę kolorować otrzymaną kolorwankę z mandalą. Naciśnij spację aby zacząć odmierzać czas,,--<--,0,1,1,0,,,,,0,1,1,45,,,,,,,,,,,,,,,,,,,,,829.939918720047,829.939918720047,left,0,0.38037095800973500,,,,,,9,20,M,N,2023-01-03_15h14.43.621,Flanker,2022.2.4,None,
Przez najbliższe 5 minut proszę kolorować otrzymaną kolorwankę z mandalą. Naciśnij spację aby zacząć odmierzać czas,,-->--,0,1,1,0,,,,,0,2,2,56,,,,,,,,,,,,,,,,,,,,,831.3403965269680,831.3403965269680,right,0,0.37478477705735700,,,,,,9,20,M,N,2023-01-03_15h14.43.621,Flanker,2022.2.4,None,
Przez najbliższe 5 minut proszę kolorować otrzymaną kolorwankę z mandalą. Naciśnij spację aby zacząć odmierzać czas,,>>>>> ,0,1,1,0,,,,,0,3,3,5,,,,,,,,,,,,,,,,,,,,,832.7134033259940,832.7134033259940,right,0,0.39074671000707900,,,,,,9,20,M,N,2023-01-03_15h14.43.621,Flanker,2022.2.4,None,
Przez najbliższe 5 minut proszę kolorować otrzymaną kolorwankę z mandalą. Naciśnij spację aby zacząć odmierzać czas,,>>>>>,0,1,1,0,,,,,0,4,4,4,,,,,,,,,,,,,,,,,,,,,834.1218821350490,834.1218821350490,right,0,0.43035140191204800,,,,,,9,20,M,N,2023-01-03_15h14.43.621,Flanker,2022.2.4,None,
Przez najbliższe 5 minut proszę kolorować otrzymaną kolorwankę z mandalą. Naciśnij spację aby zacząć odmierzać czas,,<<<<<,0,1,1,0,,,,,0,5,5,10,,,,,,,,,,,,,,,,,,,,,835.5722869039750,835.5722869039750,left,0,0.4610007719602440,,,,,,9,20,M,N,2023-01-03_15h14.43.621,Flanker,2022.2.4,None,
Przez najbliższe 5 minut proszę kolorować otrzymaną kolorwankę z mandalą. Naciśnij spację aby zacząć odmierzać czas,,<<<<<,0,1,1,0,,,,,0,6,6,16,,,,,,,,,,,,,,,,,,,,,837.0743730800460,837.0743730800460,left,0,0.370759085053578,,,,,,9,20,M,N,2023-01-03_15h14.43.621,Flanker,2022.2.4,None,
Przez najbliższe 5 minut proszę kolorować otrzymaną kolorwankę z mandalą. Naciśnij spację aby zacząć odmierzać czas,,<<<<<,0,1,1,0,,,,,0,7,7,19,,,,,,,,,,,,,,,,,,,,,838.4575071330180,838.4575071330180,left,0,0.3965210289461540,,,,,,9,20,M,N,2023-01-03_15h14.43.621,Flanker,2022.2.4,None,
Przez najbliższe 5 minut proszę kolorować otrzymaną kolorwankę z mandalą. Naciśnij spację aby zacząć odmierzać czas,,--<--,0,1,1,0,,,,,0,8,8,47,,,,,,,,,,,,,,,,,,,,,839.8535108390500,839.8535108390500,left,0,0.3606153050204740,,,,,,9,20,M,N,2023-01-03_15h14.43.621,Flanker,2022.2.4,None,
Przez najbliższe 5 minut proszę kolorować otrzymaną kolorwankę z mandalą. Naciśnij spację aby zacząć odmierzać czas,,>><>>,0,1,1,0,,,,,0,9,9,31,,,,,,,,,,,,,,,,,,,,,841.2244239019930,841.2244239019930,left,0,0.513667447026819,,,,,,9,20,M,N,2023-01-03_15h14.43.621,Flanker,2022.2.4,None,
Przez najbliższe 5 minut proszę kolorować otrzymaną kolorwankę z mandalą. Naciśnij spację aby zacząć odmierzać czas,,>>>>>,0,1,1,0,,,,,0,10,10,3,,,,,,,,,,,,,,,,,,,,,842.7475004399890,842.7475004399890,right,0,0.4084384940797460,,,,,,9,20,M,N,2023-01-03_15h14.43.621,Flanker,2022.2.4,None,
Przez najbliższe 5 minut proszę kolorować otrzymaną kolorwankę z mandalą. Naciśnij spację aby zacząć odmierzać czas,,<<><<,0,1,1,0,,,,,0,11,11,20,,,,,,,,,,,,,,,,,,,,,844.1685799950500,844.1685799950500,right,0,0.5113750009331850,,,,,,9,20,M,N,2023-01-03_15h14.43.621,Flanker,2022.2.4,None,
Przez najbliższe 5 minut proszę kolorować otrzymaną kolorwankę z mandalą. Naciśnij spację aby zacząć odmierzać czas,,<<><<,0,1,1,0,,,,,0,12,12,23,,,,,,,,,,,,,,,,,,,,,845.6936883850720,845.6936883850720,right,0,0.543288936954923,,,,,,9,20,M,N,2023-01-03_15h14.43.621,Flanker,2022.2.4,None,
Przez najbliższe 5 minut proszę kolorować otrzymaną kolorwankę z mandalą. Naciśnij spację aby zacząć odmierzać czas,,<<><<,0,1,1,0,,,,,0,13,13,21,,,,,,,,,,,,,,,,,,,,,847.2398628749650,847.2398628749650,right,0,0.4020498329773550,,,,,,9,20,M,N,2023-01-03_15h14.43.621,Flanker,2022.2.4,None,
Przez najbliższe 5 minut proszę kolorować otrzymaną kolorwankę z mandalą. Naciśnij spację aby zacząć odmierzać czas,,--<--,0,1,1,0,,,,,0,14,14,44,,,,,,,,,,,,,,,,,,,,,848.6467224049850,848.6467224049850,left,0,0.38830786291509900,,,,,,9,20,M,N,2023-01-03_15h14.43.621,Flanker,2022.2.4,None,
Przez najbliższe 5 minut proszę kolorować otrzymaną kolorwankę z mandalą. Naciśnij spację aby zacząć odmierzać czas,,<<><<,0,1,1,0,,,,,0,15,15,27,,,,,,,,,,,,,,,,,,,,,850.0431228840030,850.0431228840030,right,0,0.5588508220389490,,,,,,9,20,M,N,2023-01-03_15h14.43.621,Flanker,2022.2.4,None,
Przez najbliższe 5 minut proszę kolorować otrzymaną kolorwankę z mandalą. Naciśnij spację aby zacząć odmierzać czas,,>><>>,0,1,1,0,,,,,0,16,16,32,,,,,,,,,,,,,,,,,,,,,851.6066888410130,851.6066888410130,left,0,0.5250576740363610,,,,,,9,20,M,N,2023-01-03_15h14.43.621,Flanker,2022.2.4,None,
Przez najbliższe 5 minut proszę kolorować otrzymaną kolorwankę z mandalą. Naciśnij spację aby zacząć odmierzać czas,,-->--,0,1,1,0,,,,,0,17,17,58,,,,,,,,,,,,,,,,,,,,,853.1494368170390,853.1494368170390,right,0,0.3792628669179980,,,,,,9,20,M,N,2023-01-03_15h14.43.621,Flanker,2022.2.4,None,
Przez najbliższe 5 minut proszę kolorować otrzymaną kolorwankę z mandalą. Naciśnij spację aby zacząć odmierzać czas,,<<><<,0,1,1,0,,,,,0,18,18,26,,,,,,,,,,,,,,,,,,,,,854.5311813930750,854.5311813930750,right,0,0.5485366909997540,,,,,,9,20,M,N,2023-01-03_15h14.43.621,Flanker,2022.2.4,None,
Przez najbliższe 5 minut proszę kolorować otrzymaną kolorwankę z mandalą. Naciśnij spację aby zacząć odmierzać czas,,>><>>,0,1,1,0,,,,,0,19,19,39,,,,,,,,,,,,,,,,,,,,,856.0873717940410,856.0873717940410,left,0,0.48332716803997800,,,,,,9,20,M,N,2023-01-03_15h14.43.621,Flanker,2022.2.4,None,
Przez najbliższe 5 minut proszę kolorować otrzymaną kolorwankę z mandalą. Naciśnij spację aby zacząć odmierzać czas,,>>>>>,0,1,1,0,,,,,0,20,20,7,,,,,,,,,,,,,,,,,,,,,857.5844771380070,857.5844771380070,right,0,0.45725658000446900,,,,,,9,20,M,N,2023-01-03_15h14.43.621,Flanker,2022.2.4,None,
Przez najbliższe 5 minut proszę kolorować otrzymaną kolorwankę z mandalą. Naciśnij spację aby zacząć odmierzać czas,,--<--,0,1,1,0,,,,,0,21,21,41,,,,,,,,,,,,,,,,,,,,,859.0594028070340,859.0594028070340,left,0,0.3913062409264970,,,,,,9,20,M,N,2023-01-03_15h14.43.621,Flanker,2022.2.4,None,
Przez najbliższe 5 minut proszę kolorować otrzymaną kolorwankę z mandalą. Naciśnij spację aby zacząć odmierzać czas,,--<--,0,1,1,0,,,,,0,22,22,42,,,,,,,,,,,,,,,,,,,,,860.4599042719930,860.4599042719930,left,0,0.40171364904381300,,,,,,9,20,M,N,2023-01-03_15h14.43.621,Flanker,2022.2.4,None,
Przez najbliższe 5 minut proszę kolorować otrzymaną kolorwankę z mandalą. Naciśnij spację aby zacząć odmierzać czas,,-->--,0,1,1,0,,,,,0,23,23,59,,,,,,,,,,,,,,,,,,,,,861.8657920090480,861.8657920090480,right,0,0.42282173899002400,,,,,,9,20,M,N,2023-01-03_15h14.43.621,Flanker,2022.2.4,None,
Przez najbliższe 5 minut proszę kolorować otrzymaną kolorwankę z mandalą. Naciśnij spację aby zacząć odmierzać czas,,<<<<<,0,1,1,0,,,,,0,24,24,12,,,,,,,,,,,,,,,,,,,,,863.2893081730000,863.2893081730000,left,0,0.3742091270396490,,,,,,9,20,M,N,2023-01-03_15h14.43.621,Flanker,2022.2.4,None,
Przez najbliższe 5 minut proszę kolorować otrzymaną kolorwankę z mandalą. Naciśnij spację aby zacząć odmierzać czas,,>>>>>,0,1,1,0,,,,,0,25,25,0,,,,,,,,,,,,,,,,,,,,,864.6755972530230,864.6755972530230,right,0,0.3989323499845340,,,,,,9,20,M,N,2023-01-03_15h14.43.621,Flanker,2022.2.4,None,
Przez najbliższe 5 minut proszę kolorować otrzymaną kolorwankę z mandalą. Naciśnij spację aby zacząć odmierzać czas,,>><>>,0,1,1,0,,,,,0,26,26,38,,,,,,,,,,,,,,,,,,,,,866.0782561780650,866.0782561780650,left,0,0.4093450440559540,,,,,,9,20,M,N,2023-01-03_15h14.43.621,Flanker,2022.2.4,None,
Przez najbliższe 5 minut proszę kolorować otrzymaną kolorwankę z mandalą. Naciśnij spację aby zacząć odmierzać czas,,--<--,0,1,1,0,,,,,0,27,27,46,,,,,,,,,,,,,,,,,,,,,867.5090656629760,867.5090656629760,left,0,0.3174184509553020,,,,,,9,20,M,N,2023-01-03_15h14.43.621,Flanker,2022.2.4,None,
Przez najbliższe 5 minut proszę kolorować otrzymaną kolorwankę z mandalą. Naciśnij spację aby zacząć odmierzać czas,,>>>>>,0,1,1,0,,,,,0,28,28,8,,,,,,,,,,,,,,,,,,,,,868.8309675289780,868.8309675289780,right,0,0.41443971905391700,,,,,,9,20,M,N,2023-01-03_15h14.43.621,Flanker,2022.2.4,None,
Przez najbliższe 5 minut proszę kolorować otrzymaną kolorwankę z mandalą. Naciśnij spację aby zacząć odmierzać czas,,-->--,0,1,1,0,,,,,0,29,29,50,,,,,,,,,,,,,,,,,,,,,870.2448378690750,870.2448378690750,right,0,0.45250749203842100,,,,,,9,20,M,N,2023-01-03_15h14.43.621,Flanker,2022.2.4,None,
Przez najbliższe 5 minut proszę kolorować otrzymaną kolorwankę z mandalą. Naciśnij spację aby zacząć odmierzać czas,,<<<<<,0,1,1,0,,,,,0,30,30,14,,,,,,,,,,,,,,,,,,,,,871.7126466700570,871.7126466700570,left,0,0.3576348479837180,,,,,,9,20,M,N,2023-01-03_15h14.43.621,Flanker,2022.2.4,None,
Przez najbliższe 5 minut proszę kolorować otrzymaną kolorwankę z mandalą. Naciśnij spację aby zacząć odmierzać czas,,<<><<,0,1,1,0,,,,,0,31,31,22,,,,,,,,,,,,,,,,,,,,,873.0752181049900,873.0752181049900,right,0,0.40814885997679100,,,,,,9,20,M,N,2023-01-03_15h14.43.621,Flanker,2022.2.4,None,
Przez najbliższe 5 minut proszę kolorować otrzymaną kolorwankę z mandalą. Naciśnij spację aby zacząć odmierzać czas,,<<><<,0,1,1,0,,,,,0,32,32,28,,,,,,,,,,,,,,,,,,,,,874.4910490630430,874.4910490630430,right,0,0.5313512838911270,,,,,,9,20,M,N,2023-01-03_15h14.43.621,Flanker,2022.2.4,None,
Przez najbliższe 5 minut proszę kolorować otrzymaną kolorwankę z mandalą. Naciśnij spację aby zacząć odmierzać czas,,-->--,0,1,1,0,,,,,0,33,33,53,,,,,,,,,,,,,,,,,,,,,876.02949421003,876.02949421003,right,0,0.3508453699760140,,,,,,9,20,M,N,2023-01-03_15h14.43.621,Flanker,2022.2.4,None,
Przez najbliższe 5 minut proszę kolorować otrzymaną kolorwankę z mandalą. Naciśnij spację aby zacząć odmierzać czas,,--<--,0,1,1,0,,,,,0,34,34,40,,,,,,,,,,,,,,,,,,,,,877.3837558659730,877.3837558659730,left,0,0.38659649703186000,,,,,,9,20,M,N,2023-01-03_15h14.43.621,Flanker,2022.2.4,None,
Przez najbliższe 5 minut proszę kolorować otrzymaną kolorwankę z mandalą. Naciśnij spację aby zacząć odmierzać czas,,>><>>,0,1,1,0,,,,,0,35,35,35,,,,,,,,,,,,,,,,,,,,,878.7755327370250,878.7755327370250,left,0,0.5126823020400480,,,,,,9,20,M,N,2023-01-03_15h14.43.621,Flanker,2022.2.4,None,
Przez najbliższe 5 minut proszę kolorować otrzymaną kolorwankę z mandalą. Naciśnij spację aby zacząć odmierzać czas,,>><>>,0,1,1,0,,,,,0,36,36,34,,,,,,,,,,,,,,,,,,,,,880.2858689440180,880.2858689440180,left,0,0.42225125699769700,,,,,,9,20,M,N,2023-01-03_15h14.43.621,Flanker,2022.2.4,None,
Przez najbliższe 5 minut proszę kolorować otrzymaną kolorwankę z mandalą. Naciśnij spację aby zacząć odmierzać czas,,>><>>,0,1,1,0,,,,,0,37,37,36,,,,,,,,,,,,,,,,,,,,,881.7399836300170,881.7399836300170,left,0,0.43221466906834400,,,,,,9,20,M,N,2023-01-03_15h14.43.621,Flanker,2022.2.4,None,
Przez najbliższe 5 minut proszę kolorować otrzymaną kolorwankę z mandalą. Naciśnij spację aby zacząć odmierzać czas,,<<<<<,0,1,1,0,,,,,0,38,38,18,,,,,,,,,,,,,,,,,,,,,883.181723264046,883.181723264046,left,0,0.4145641670329500,,,,,,9,20,M,N,2023-01-03_15h14.43.621,Flanker,2022.2.4,None,
Przez najbliższe 5 minut proszę kolorować otrzymaną kolorwankę z mandalą. Naciśnij spację aby zacząć odmierzać czas,,<<<<<,0,1,1,0,,,,,0,39,39,13,,,,,,,,,,,,,,,,,,,,,884.5973763180660,884.5973763180660,left,0,0.39270525390747900,,,,,,9,20,M,N,2023-01-03_15h14.43.621,Flanker,2022.2.4,None,
Przez najbliższe 5 minut proszę kolorować otrzymaną kolorwankę z mandalą. Naciśnij spację aby zacząć odmierzać czas,,--<--,0,1,1,0,,,,,0,40,40,48,,,,,,,,,,,,,,,,,,,,,885.9959931679770,885.9959931679770,left,0,0.417187588987872,,,,,,9,20,M,N,2023-01-03_15h14.43.621,Flanker,2022.2.4,None,
Przez najbliższe 5 minut proszę kolorować otrzymaną kolorwankę z mandalą. Naciśnij spację aby zacząć odmierzać czas,,-->--,0,1,1,0,,,,,0,41,41,54,,,,,,,,,,,,,,,,,,,,,887.4183562010290,887.4183562010290,right,0,0.37163618800696000,,,,,,9,20,M,N,2023-01-03_15h14.43.621,Flanker,2022.2.4,None,
Przez najbliższe 5 minut proszę kolorować otrzymaną kolorwankę z mandalą. Naciśnij spację aby zacząć odmierzać czas,,>>>>>,0,1,1,0,,,,,0,42,42,2,,,,,,,,,,,,,,,,,,,,,888.7966088759710,888.7966088759710,right,0,0.4095312120625750,,,,,,9,20,M,N,2023-01-03_15h14.43.621,Flanker,2022.2.4,None,
Przez najbliższe 5 minut proszę kolorować otrzymaną kolorwankę z mandalą. Naciśnij spację aby zacząć odmierzać czas,,<<<<<,0,1,1,0,,,,,0,43,43,11,,,,,,,,,,,,,,,,,,,,,890.2128744439690,890.2128744439690,left,0,0.3401980100898070,,,,,,9,20,M,N,2023-01-03_15h14.43.621,Flanker,2022.2.4,None,
Przez najbliższe 5 minut proszę kolorować otrzymaną kolorwankę z mandalą. Naciśnij spację aby zacząć odmierzać czas,,<<><<,0,1,1,0,,,,,0,44,44,29,,,,,,,,,,,,,,,,,,,,,891.567381749046,891.567381749046,right,0,0.705509394989349,,,,,,9,20,M,N,2023-01-03_15h14.43.621,Flanker,2022.2.4,None,
Przez najbliższe 5 minut proszę kolorować otrzymaną kolorwankę z mandalą. Naciśnij spację aby zacząć odmierzać czas,,<<<<<,0,1,1,0,,,,,0,45,45,17,,,,,,,,,,,,,,,,,,,,,893.2972979870390,893.2972979870390,left,0,0.3726562469964850,,,,,,9,20,M,N,2023-01-03_15h14.43.621,Flanker,2022.2.4,None,
Przez najbliższe 5 minut proszę kolorować otrzymaną kolorwankę z mandalą. Naciśnij spację aby zacząć odmierzać czas,,-->--,0,1,1,0,,,,,0,46,46,55,,,,,,,,,,,,,,,,,,,,,894.678267730982,894.678267730982,right,0,0.42472942592576100,,,,,,9,20,M,N,2023-01-03_15h14.43.621,Flanker,2022.2.4,None,
Przez najbliższe 5 minut proszę kolorować otrzymaną kolorwankę z mandalą. Naciśnij spację aby zacząć odmierzać czas,,>><>>,0,1,1,0,,,,,0,47,47,30,,,,,,,,,,,,,,,,,,,,,896.1268897060070,896.1268897060070,left,0,0.530069723026827,,,,,,9,20,M,N,2023-01-03_15h14.43.621,Flanker,2022.2.4,None,
Przez najbliższe 5 minut proszę kolorować otrzymaną kolorwankę z mandalą. Naciśnij spację aby zacząć odmierzać czas,,-->--,0,1,1,0,,,,,0,48,48,51,,,,,,,,,,,,,,,,,,,,,897.6671316770370,897.6671316770370,right,0,0.3636331210145730,,,,,,9,20,M,N,2023-01-03_15h14.43.621,Flanker,2022.2.4,None,
Przez najbliższe 5 minut proszę kolorować otrzymaną kolorwankę z mandalą. Naciśnij spację aby zacząć odmierzać czas,,>><>>,0,1,1,0,,,,,0,49,49,33,,,,,,,,,,,,,,,,,,,,,899.0412708150690,899.0412708150690,left,0,0.370555890025571,,,,,,9,20,M,N,2023-01-03_15h14.43.621,Flanker,2022.2.4,None,
Przez najbliższe 5 minut proszę kolorować otrzymaną kolorwankę z mandalą. Naciśnij spację aby zacząć odmierzać czas,,<<><<,0,1,1,0,,,,,0,50,50,24,,,,,,,,,,,,,,,,,,,,,900.4112531619610,900.4112531619610,right,0,0.570466871955432,,,,,,9,20,M,N,2023-01-03_15h14.43.621,Flanker,2022.2.4,None,
Przez najbliższe 5 minut proszę kolorować otrzymaną kolorwankę z mandalą. Naciśnij spację aby zacząć odmierzać czas,,>>>>>,0,1,1,0,,,,,0,51,51,6,,,,,,,,,,,,,,,,,,,,,902.0003974779980,902.0003974779980,right,0,0.4373879360500720,,,,,,9,20,M,N,2023-01-03_15h14.43.621,Flanker,2022.2.4,None,
Przez najbliższe 5 minut proszę kolorować otrzymaną kolorwankę z mandalą. Naciśnij spację aby zacząć odmierzać czas,,>><>>,0,1,1,0,,,,,0,52,52,37,,,,,,,,,,,,,,,,,,,,,903.4565235100450,903.4565235100450,left,0,0.42424799606669700,,,,,,9,20,M,N,2023-01-03_15h14.43.621,Flanker,2022.2.4,None,
Przez najbliższe 5 minut proszę kolorować otrzymaną kolorwankę z mandalą. Naciśnij spację aby zacząć odmierzać czas,,-->--,0,1,1,0,,,,,0,53,53,52,,,,,,,,,,,,,,,,,,,,,904.883549625054,904.883549625054,right,0,0.4151543549960480,,,,,,9,20,M,N,2023-01-03_15h14.43.621,Flanker,2022.2.4,None,
Przez najbliższe 5 minut proszę kolorować otrzymaną kolorwankę z mandalą. Naciśnij spację aby zacząć odmierzać czas,,--<--,0,1,1,0,,,,,0,54,54,43,,,,,,,,,,,,,,,,,,,,,906.3167526429750,906.3167526429750,left,0,0.3630219579208640,,,,,,9,20,M,N,2023-01-03_15h14.43.621,Flanker,2022.2.4,None,
Przez najbliższe 5 minut proszę kolorować otrzymaną kolorwankę z mandalą. Naciśnij spację aby zacząć odmierzać czas,,>>>>>,0,1,1,0,,,,,0,55,55,9,,,,,,,,,,,,,,,,,,,,,907.6836394900460,907.6836394900460,right,0,0.32993108790833500,,,,,,9,20,M,N,2023-01-03_15h14.43.621,Flanker,2022.2.4,None,
Przez najbliższe 5 minut proszę kolorować otrzymaną kolorwankę z mandalą. Naciśnij spację aby zacząć odmierzać czas,,--<--,0,1,1,0,,,,,0,56,56,49,,,,,,,,,,,,,,,,,,,,,909.0249587639700,909.0249587639700,left,0,0.3747289319289850,,,,,,9,20,M,N,2023-01-03_15h14.43.621,Flanker,2022.2.4,None,
Przez najbliższe 5 minut proszę kolorować otrzymaną kolorwankę z mandalą. Naciśnij spację aby zacząć odmierzać czas,,<<<<<,0,1,1,0,,,,,0,57,57,15,,,,,,,,,,,,,,,,,,,,,910.4119518930090,910.4119518930090,left,0,0.38456738903187200,,,,,,9,20,M,N,2023-01-03_15h14.43.621,Flanker,2022.2.4,None,
Przez najbliższe 5 minut proszę kolorować otrzymaną kolorwankę z mandalą. Naciśnij spację aby zacząć odmierzać czas,,>>>>>,0,1,1,0,,,,,0,58,58,1,,,,,,,,,,,,,,,,,,,,,911.8006090499690,911.8006090499690,right,0,0.41098378505557800,,,,,,9,20,M,N,2023-01-03_15h14.43.621,Flanker,2022.2.4,None,
Przez najbliższe 5 minut proszę kolorować otrzymaną kolorwankę z mandalą. Naciśnij spację aby zacząć odmierzać czas,,-->--,0,1,1,0,,,,,0,59,59,57,,,,,,,,,,,,,,,,,,,,,913.2133263030560,913.2133263030560,right,0,0.385144377942197,,,,,,9,20,M,N,2023-01-03_15h14.43.621,Flanker,2022.2.4,None,
Przez najbliższe 5 minut proszę kolorować otrzymaną kolorwankę z mandalą. Naciśnij spację aby zacząć odmierzać czas,,,0,1,1,0,,,,,,,,,,,,,,,,,,,,,,,,,,,,,,,,,,,,,,,9,20,M,N,2023-01-03_15h14.43.621,Flanker,2022.2.4,None,
,,,,,,,,,,,,,,,,,,,,,,,,,,,,,,,,,,,,,,,,,914.6036112300350,914.6036112300350,space,4.608516498003160,9,20,M,N,2023-01-03_15h14.43.621,Flanker,2022.2.4,None,